sample,gyro_x,gyro_y,gyro_z
1057500,-271.5066630855146,-306.0867460880891,294.41159514697796
1057501,-271.44417385835266,-306.01243360791193,294.3934033739259
1057502,-272.02840845312295,-305.99722407965254,294.296403988706
1057503,-272.2736154958994,-306.53810117370534,294.4837971651699
1057504,-272.3653173809742,-306.62083455315354,293.99051384935694
1057505,-272.40914864147163,-305.4793214251022,294.2653662826257
1057506,-273.3360757617055,-304.9837033380585,294.23906143613385
1057507,-273.8862653055032,-304.84888978593324,294.49643156183777
1057508,-273.68813490237534,-303.3129583918278,293.43642382077473
1057509,-274.8652347856692,-303.6422087956694,293.6490411445064
1057510,-274.6355559420399,-303.3192683661058,294.03792623646007
1057511,-273.66296617245183,-302.0611410782244,294.78212088691487
1057512,-272.7154981292202,-302.13302264340837,295.25831295360064
1057513,-272.58610645479234,-302.6911017750364,295.7178563765399
1057514,-272.398607240948,-302.5849848126797,296.16669108071295
1057515,-271.997778829813,-302.97224582567264,295.53079000453357
1057516,-272.3431504377854,-302.74369356589926,294.13482425676926
1057517,-272.38221724702885,-303.00255193626816,295.1173389337344
1057518,-272.1201990389314,-302.8601459065506,295.457225365042
1057519,-272.479983525964,-302.276214089235,295.63153722256095
1057520,-272.77245159667495,-302.52609198586896,295.9581341516537
1057521,-271.6805412085424,-303.2585578411552,296.2473004398976
1057522,-272.06983376022777,-303.8497244485232,296.63899745238433
1057523,-272.6214433452129,-303.5916496310117,296.31391094049576
1057524,-272.6065483960498,-304.18057605312805,295.97144100258464
1057525,-272.6790094340742,-303.98352331235503,295.9165065164415
1057526,-272.02349396617035,-304.1062734933837,296.0707660046762
1057527,-272.42195744591714,-304.9721718576063,296.0542003470836
1057528,-272.908114989925,-305.2055238951784,295.0983180290496
1057529,-272.99803669983027,-306.0799290352386,295.7297068740782
1057530,-272.6939047711644,-304.96289552653946,295.23155986936064
1057531,-271.98377681679,-304.71450468673936,294.4494033926359
1057532,-270.9244063686362,-304.0295064103243,293.87963227272184
1057533,-270.37236415069015,-303.4903635959095,293.4660835758954
1057534,-269.87170928455265,-303.4509723869255,292.42948288669515
1057535,-270.23731235208805,-302.96408013636915,293.04905797375415
1057536,-270.3140456500073,-302.7388487199484,293.00658342138973
1057537,-270.12176964624075,-302.50617435282663,293.19987065593534
1057538,-271.4939373896773,-302.17077459023375,294.2563846205049
1057539,-271.9659950880955,-302.6100330960291,294.3222986041173
1057540,-271.7608105879079,-302.7441519206523,294.5824019809738
1057541,-270.7456530921971,-303.497404344048,294.3389445290551
1057542,-270.23021521830077,-304.809253653256,294.65703562155244
1057543,-269.2863850617498,-305.56649192935305,294.6255907677662
1057544,-269.3039869696591,-305.23203003033285,294.133914106286
1057545,-269.423499609594,-304.9777436167174,293.4518418907099
1057546,-269.1524942734867,-305.70993284903506,294.81440411570304
1057547,-269.4840715260621,-306.5287010092504,295.3477784122123
1057548,-269.9191353638604,-306.23515067833887,295.3398687899362
1057549,-270.7285395537505,-306.04220589801577,295.7024131378542
1057550,-271.3728685993568,-306.3725877813026,295.9889883750909
1057551,-271.3461014229326,-305.5846794304361,295.6826899357942
1057552,-271.52184491138735,-305.86005449546286,295.8195874942823
1057553,-271.73547951236975,-305.5228728030827,295.86718318429166
1057554,-272.1067788017329,-305.7739584269157,296.10060922344485
1057555,-273.2109645874148,-305.7675591599456,296.4893662932535
1057556,-273.5240796346035,-306.0796760222719,296.39312052821396
1057557,-272.65712714695917,-306.26232839432106,296.5082932920335
1057558,-272.55050287116956,-306.5846410606602,297.1411902732476
1057559,-272.8837108429793,-306.3927830226767,297.5072134550088
1057560,-272.8876003796225,-305.4937253722169,297.5447744930097
1057561,-273.25492073429433,-305.6593662859841,297.6104752990404
1057562,-273.94102249524195,-306.06473099297517,297.8159179906994
1057563,-273.5933933762805,-305.78089735005443,298.7666693496181
1057564,-274.07407556707744,-305.70613543819246,298.2261849709638
1057565,-273.73376197774576,-305.7150491078274,297.04139759295185
1057566,-273.5796140622258,-305.3160117997249,296.9357701355213
1057567,-274.1872295821798,-305.110979732096,296.51139298250223
1057568,-274.5406761332196,-304.84285395982647,295.43004414967703
1057569,-273.6342119073329,-304.68274545671846,295.16212298551955
1057570,-273.45432619682515,-305.23355833862615,295.6125946839812
1057571,-273.8844711601519,-305.4959496377185,295.0612848468646
1057572,-272.7174653372322,-305.42018085491185,295.49711385688965
1057573,-272.4007741686659,-304.8941442253689,296.27291639296743
1057574,-272.18665935985183,-304.59275619473067,296.055995567898
1057575,-272.179544857836,-304.0660912899258,295.22993592112994
1057576,-272.8216947031927,-303.6216124215238,295.60057495558334
1057577,-273.02902589353715,-302.84396931559735,296.17913693606687
1057578,-272.5212956326215,-302.5529401888377,295.6885570192743
1057579,-272.424282996181,-302.6120192626891,295.5009174823997
1057580,-273.2984762831766,-301.74741197565874,295.52788809572286
1057581,-272.5648919934221,-301.7689567938149,294.94277331021834
1057582,-271.7700363199156,-302.38543581243994,296.2841870682345
1057583,-271.3105264617974,-301.78317780395145,296.55749820655507
1057584,-270.9975823557426,-301.9628237682093,295.3054653000858
1057585,-271.0101126609894,-302.6028583645324,295.3250474924249
1057586,-271.7251890547229,-302.6106708812988,295.53313058811955
1057587,-270.9662555596999,-302.2767785393332,295.8346489396512
1057588,-270.5442560864572,-302.33258083633353,295.81536656782237
1057589,-270.61545878255487,-302.6181728860047,295.3840851488416
1057590,-271.5110519644569,-302.40072132679876,295.18766298866154
1057591,-271.4535698603298,-301.7215533709654,294.94656331193846
1057592,-271.3993564772768,-302.0579970932489,294.93328791674855
1057593,-271.1189034233201,-301.60366074240153,294.6506580531795
1057594,-270.8670581974147,-301.90507129709744,295.0922778830869
1057595,-271.48767799604826,-301.6245192444895,295.1328857307808
1057596,-271.41013820541855,-302.2388070975435,295.58218907459735
1057597,-271.5668838048383,-301.9571511551549,296.45843127862895
1057598,-271.1294084763614,-301.9062334141635,295.6650556639799
1057599,-271.10932234934796,-301.2176696811062,296.17322746197675
1057600,-271.87314020528873,-301.38526158228564,297.1376471208337
1057601,-272.1895059412703,-299.6797636646375,296.32975840004497
1057602,-272.3628813982099,-299.47799883295613,296.6117144263242
1057603,-272.8344870060972,-299.9826390927263,296.49040517752104
1057604,-273.1678942338822,-299.9673551960219,295.24062156687546
1057605,-273.43485814669003,-299.73732243766364,295.26206502565486
1057606,-274.1455538178576,-299.963364733131,295.9939561874421
1057607,-274.1403452001328,-301.0607024733795,296.0624557901563
1057608,-273.4168896711985,-301.7972634052813,295.9700958529966
1057609,-273.6790192629235,-301.8870894835271,296.23299342748527
1057610,-273.47393330099266,-301.1458042798711,296.404523620912
1057611,-273.996318731382,-301.5506795952246,296.5064285304116
1057612,-273.7346802043315,-301.5700184168876,296.8376037038527
1057613,-274.3771613795434,-302.15306913821706,296.3352746819074
1057614,-273.9065847653422,-302.30670665725586,296.5776737878861
1057615,-274.33179247266014,-302.67145690641775,296.51267361843986
1057616,-274.9342495513722,-302.5783916894024,297.68410854555344
1057617,-275.28507410388556,-302.16890617928175,298.5798717257676
1057618,-274.70045491598916,-302.9792748456604,299.78309856767345
1057619,-274.46874258977664,-303.51988437011306,299.3001404928079
1057620,-273.72942243030195,-303.39042436519406,298.7514069606693
1057621,-273.22454609063647,-303.4227163175044,299.2032731474484
1057622,-272.7033339627628,-303.4401762559415,299.45649248823713
1057623,-272.8967662015388,-303.8230412081266,299.6770343709183
1057624,-272.33399656851776,-303.873496296048,299.4128778760964
1057625,-272.0856353680671,-304.8279793801516,298.4135749609118
1057626,-271.7953036397951,-304.3088728094358,298.0177934980702
1057627,-272.33108245169734,-304.7910693873384,298.19509579284346
1057628,-272.15709222409913,-305.64870715143974,297.17278758488806
1057629,-272.9444452390975,-305.56465905306897,297.3044009959152
1057630,-274.1187334347448,-305.8201775990815,297.3146889544093
1057631,-273.86444388195446,-305.70881579097835,298.06436597814377
1057632,-272.7214079722157,-305.5912505355354,297.9092985849391
1057633,-272.7926484449665,-305.1428308989928,298.242153599906
1057634,-272.1337965882976,-305.3528658272553,297.9398912730428
1057635,-272.67291226586036,-305.7329740866312,297.8435231115581
1057636,-272.486104152017,-306.1636608228385,297.7844188739317
1057637,-272.41011741513853,-306.43158407669176,297.83186736465063
1057638,-272.576828957699,-306.83712789251945,296.8014926910707
1057639,-272.7423848014568,-307.37747924864215,296.9622846875309
1057640,-272.1997201703828,-307.7698039969648,296.26631178679054
1057641,-271.4350126075166,-307.5578068198904,296.02294210498064
1057642,-271.2185301074972,-306.82644340935474,294.89998119570356
1057643,-270.94513057447494,-306.946529273614,294.93983209454433
1057644,-270.8060255732004,-306.5601043889153,294.88029914424766
1057645,-270.70549530753783,-307.1418212742688,295.2650247439015
1057646,-270.5884057911595,-307.1395981405667,295.18356779017415
1057647,-270.33614422445504,-306.76847276357125,295.4459124180794
1057648,-269.7401427674422,-306.32898429638584,295.52689763724504
1057649,-271.26818706661277,-306.45450145746213,295.00596342767386
1057650,-271.42101894088063,-306.46339304179827,294.8501633475133
1057651,-271.3853660053993,-306.30116094431526,294.4386511631929
1057652,-270.59392180394076,-306.6186813505495,294.799206064768
1057653,-270.36234962457246,-306.41778812422064,293.3619193167477
1057654,-270.09391775538114,-306.3425844058955,293.325743069972
1057655,-270.19004258880267,-305.88706908023016,293.6500844071344
1057656,-270.73235706288693,-306.3262746592334,294.145936087578
1057657,-271.14575314483824,-306.6226191284153,292.9714002785719
1057658,-271.46489512310757,-306.9286843833698,293.1861814072637
1057659,-271.7767948474866,-307.3705447881509,293.5091527498069
1057660,-271.5935727190765,-307.6813969986719,294.0203445285112
1057661,-271.51660188219853,-307.7877040601803,294.4153180299986
1057662,-271.76894089402873,-306.8601639497111,294.3632304120676
1057663,-272.3883299785907,-307.326725945005,293.6962512384426
1057664,-272.6647501099151,-306.8257039830197,293.9136197204702
1057665,-272.61477550459665,-307.0513574480735,294.8594062293744
1057666,-272.46981175329694,-306.41910806591494,294.85887284835576
1057667,-272.4904129765283,-306.10084972162736,294.65692708368243
1057668,-272.769765411275,-306.9325220738726,295.4210255462687
1057669,-273.47244711744196,-307.1596173059901,296.05540477814696
1057670,-273.18301460260074,-307.00906903886346,296.25565686686605
1057671,-273.31193946839045,-306.99110042545936,296.3179353630681
1057672,-272.97528214632416,-306.77490840651507,295.61311310115684
1057673,-273.9014245513822,-306.7969197689735,294.4375473805375
1057674,-275.0785885494137,-306.8868457837867,295.3673125569504
1057675,-275.2764513156776,-306.47422056656427,295.50758685682393
1057676,-275.46293589765816,-305.6951260700211,295.57877704166924
1057677,-275.7745755820202,-305.34918945512794,294.9897722459588
1057678,-276.1189240692421,-306.56199046300696,294.85785077081664
1057679,-275.80816212086705,-305.9522247892008,294.91885232081955
1057680,-275.41382827058965,-305.96513296507703,294.92925429321144
1057681,-275.69548785529383,-306.36665575711845,294.66025459020676
1057682,-275.433878757045,-305.740222727578,294.8301442000304
1057683,-276.50919341972826,-305.2811029650068,295.5147887614165
1057684,-276.6161898226584,-305.78112753951297,295.5749001251231
1057685,-276.438972205836,-305.09480548705994,296.6265360883784
1057686,-276.9946381722791,-304.81916194037825,296.5643021242639
1057687,-277.08801687287564,-304.73244724411967,296.72771738983477
1057688,-276.9112682786519,-304.2354738146195,296.59071642033877
1057689,-277.1741886449518,-304.79446864020855,296.1997372862467
1057690,-277.3746096796061,-305.24308465626876,295.4625525940138
1057691,-276.64834185164733,-304.96230757099755,295.47404577347453
1057692,-276.7231796386975,-304.55981539366593,296.027025549266
1057693,-276.26955879427,-304.5526868268796,296.12561303653825
1057694,-275.64953434997756,-303.3936789776212,296.00484949736483
1057695,-275.56484788022937,-303.43846896030726,295.79953349451097
1057696,-276.09724386566376,-302.8725521786841,295.88290929696944
1057697,-276.2661292143499,-303.3799642093513,296.07443669560905
1057698,-275.9396635873912,-303.1531543538507,296.16998483966717
1057699,-276.5662538551116,-302.5362191867325,296.5447775513011
1057700,-276.75302269121573,-300.8377141038957,296.71207659024975
1057701,-277.170283027699,-300.1371249628188,296.6337152441074
1057702,-276.72637695721795,-300.335965687033,296.5419631024238
1057703,-276.5138852331352,-300.48243604917735,296.8657086110844
1057704,-276.3437488260405,-299.73104674831256,296.4062734664965
1057705,-275.7273260760787,-298.51618753199944,296.98960738780727
1057706,-275.94893889223505,-298.53397626031835,296.8957880611871
1057707,-276.8650945612183,-298.5473861506289,296.99751420185464
1057708,-277.13694404784326,-298.78325320478234,296.436434736381
1057709,-277.02506081613495,-298.92451460855034,295.0681201853535
1057710,-277.54422631293903,-297.93745574008256,295.0615940649499
1057711,-278.1386197495463,-298.11504075064306,295.14692176354265
1057712,-279.17302681293205,-298.2161602851887,295.229801018452
1057713,-278.9797687016862,-297.6745153778458,295.6456262726471
1057714,-279.7448790492507,-296.62531713952654,296.4208085701681
1057715,-279.59521388551565,-296.44457316386854,296.85967209972574
1057716,-279.22652934487513,-296.08548184770694,297.1469796719092
1057717,-279.2261467941847,-295.9388930138078,297.229531240496
1057718,-278.8649474186961,-295.56714616418725,296.46586077507345
1057719,-278.35240777683356,-296.2312993811697,296.6465677832478
1057720,-278.6914692863653,-295.66616747536494,297.43319124475204
1057721,-278.18993614402245,-295.2694066319082,297.91157540953907
1057722,-277.8136680494845,-295.09942224289154,298.50993293395663
1057723,-277.3675055701675,-295.3029905092447,298.06013683979626
1057724,-277.9205932087709,-294.8552723758317,297.35088697565106
1057725,-278.56001598961194,-294.829406865423,296.7077523465222
1057726,-280.3708237039893,-294.26950567098015,297.41369027118566
1057727,-279.9176348718115,-294.08405760264077,296.9835861561469
1057728,-280.25804443244743,-294.3228289761185,295.91220860162974
1057729,-280.6289631553908,-294.3035621937981,295.06026626827503
1057730,-280.71624750297445,-293.87949054470863,295.0022288549408
1057731,-280.8337008103431,-294.5071009972812,295.4278292107147
1057732,-280.7107987378168,-294.1845679140904,295.4988976465776
1057733,-280.7889174086603,-294.5149515669625,295.73237838763623
1057734,-280.9119785997452,-294.62423266522467,295.0559706553125
1057735,-280.724051826813,-293.3724042775079,296.0493462564646
1057736,-281.1122366862281,-293.68620439669263,295.75454872544077
1057737,-280.73327844902,-292.7653863120953,295.87260300731833
1057738,-280.23756818803093,-292.5164956506015,296.24512713299964
1057739,-280.35065249758316,-292.3161816705329,295.23269252509164
1057740,-280.3285626506489,-292.48424737919345,295.7384928259245
1057741,-280.243703102288,-292.3798698269697,295.8710865583753
1057742,-281.25311775294153,-292.56709656623804,295.69166664647946
1057743,-281.24809402454207,-292.782569536592,294.53458385850627
1057744,-280.58610039344046,-292.319897943959,294.64144582538574
1057745,-281.10550452329824,-292.11569857896296,294.8312565140793
1057746,-280.3137070579986,-291.9545202357603,295.24025686566154
1057747,-281.22802482022354,-292.70323315821884,295.51719803562395
1057748,-280.8478380935243,-293.35488553730545,295.97596276670964
1057749,-281.66682893522056,-293.035345797068,295.8239120156955
1057750,-282.1738419314212,-292.8373602243962,295.7745956230795
1057751,-282.45973219184543,-292.3896562792875,295.6178232604057
1057752,-282.37923494017934,-292.33178721617656,294.64205168098295
1057753,-282.2850385641732,-292.37498737137093,294.20107865826606
1057754,-282.90275124695535,-292.1247565552254,294.3004661749868
1057755,-282.40288830279326,-292.2471473439823,293.62177175596327
1057756,-282.3517557202972,-291.72051484133357,292.76012094978176
1057757,-282.5054150873593,-290.7913407529199,292.5215434563208
1057758,-282.25318388480804,-291.1326105053229,292.1366068101015
1057759,-282.31343984134196,-291.10768503987686,291.845688551965
1057760,-282.72034215304393,-291.3361031455284,291.7961215201903
1057761,-283.40389745231545,-291.2600380221889,292.7006102666994
1057762,-283.6149510399418,-291.4402941505479,293.24641669077323
1057763,-284.1896916538289,-291.646938683384,292.2588537224399
1057764,-283.71570501602355,-292.00902388194163,292.3143429055169
1057765,-283.5622554201981,-291.7825235632733,292.79462711917245
1057766,-284.0638357183258,-292.0716146845541,292.34904010806844
1057767,-284.4688483854453,-291.8644294840334,291.9115509682897
1057768,-284.8714613443532,-291.8096174519765,292.04875652610264
1057769,-284.89190573502384,-291.7903850666588,292.1544314450882
1057770,-284.3640417313284,-291.71868276461055,293.1352626150611
1057771,-284.4552970028021,-292.03715144205864,293.50495258682093
1057772,-284.4753912866202,-291.93260969721354,293.59800660725006
1057773,-284.2741542340186,-292.3460334015364,293.73248753241023
1057774,-283.7797800699717,-291.87037450960923,294.34575436154853
1057775,-284.1600853477296,-291.3969111700942,293.94643007659425
1057776,-284.20244619181693,-291.48775712292496,294.12390359382005
1057777,-284.3729371709824,-291.4303410467641,293.9953893130643
1057778,-285.405765174893,-291.40543674789933,294.1194381396052
1057779,-285.1805439729904,-291.1837179938308,294.5929536699804
1057780,-284.50458779933535,-290.60847357354834,293.32446902138116
1057781,-284.7606881455537,-290.790234807895,292.6576281139401
1057782,-284.3658893993144,-291.22120808174384,291.97734681309385
1057783,-283.80409482016427,-291.13321070686885,292.7270345715286
1057784,-283.5280840768723,-291.02499944108314,293.4763806511625
1057785,-283.6187769381643,-291.2748598232484,293.62811811530554
1057786,-283.11525141205516,-291.65192445889465,293.23843119532654
1057787,-282.9710024628789,-292.26663404765793,293.8275834758717
1057788,-282.8394084622197,-292.20972741996786,293.7712771289895
1057789,-282.31098973024064,-291.88613206147653,293.23413242558274
1057790,-282.6323150510209,-291.1269176462148,293.14265971986225
1057791,-282.4534224581681,-290.20946490738504,292.8814534504507
1057792,-282.4339812635166,-290.5154738883356,292.05921886192317
1057793,-282.2028548441022,-290.0833587493741,291.2885915321239
1057794,-282.6599935987216,-289.29841990586704,291.3026714042037
1057795,-282.2167554872567,-288.75061102601796,290.0981813373991
1057796,-281.5752971133157,-289.16654640825504,290.556515500732
1057797,-281.64408173141345,-289.2040427488405,290.5601626528834
1057798,-282.1578995275649,-289.4397689108908,289.9208299507069
1057799,-282.38168448400427,-288.92484732249676,289.50492601245287
1057800,-282.0646914332188,-288.06722333977143,290.1651918108186
1057801,-282.61542375402286,-288.30794773287477,289.10705943193784
1057802,-282.70119532127535,-288.22710646286055,289.54495941517547
1057803,-282.85450900694946,-287.8563395997921,288.9661227306711
1057804,-283.3867236581329,-288.44865755335695,288.95843839352534
1057805,-283.60177079772626,-288.06261308155564,289.12171457566626
1057806,-284.3739309235762,-286.6873388640016,289.7512149511735
1057807,-284.87675340906867,-286.80113170806624,289.71088375055893
1057808,-286.38869280338804,-286.89407696368875,289.8455376892519
1057809,-285.7503337484947,-286.00514776470754,290.225236323347
1057810,-285.90582619642464,-285.65020326569373,289.3036092789056
1057811,-285.3952139716983,-285.950188407767,289.5441641618245
1057812,-284.5521013111422,-286.4908457935678,289.65873908968064
1057813,-285.1752179322895,-286.7917923541596,290.12409520212304
1057814,-285.9109238432331,-286.1983244678669,289.47422024743787
1057815,-285.0317901058986,-285.9309704695264,288.951187713527
1057816,-285.26968399197045,-286.5850608555672,288.79126165029686
1057817,-284.20355657063163,-286.6955782862434,289.6519783432806
1057818,-283.68499555481276,-286.0114390857846,289.3868370934892
1057819,-284.0452025079756,-286.34082800617847,289.6501383107214
1057820,-283.5951342900431,-286.5485744613482,289.6564446813271
1057821,-283.97242072885024,-286.57638498597925,289.39438143051103
1057822,-283.6112387567302,-286.2511650685293,288.89495976512956
1057823,-283.537586792039,-285.82533117301284,288.8979111708291
1057824,-283.08444439036975,-285.7194469586612,289.1725529878209
1057825,-282.4871874652448,-285.97111538544954,289.1292343900888
1057826,-282.7356867991317,-285.9495625810291,288.71229066724453
1057827,-282.50146102181213,-285.7707628277326,289.4291950704944
1057828,-282.79276233438975,-285.81726959037445,290.07630874181416
1057829,-283.01535091568275,-286.0519603176377,289.96407710236394
1057830,-281.55109133189745,-285.57708890045393,289.2475885951639
1057831,-282.3801287460168,-284.52023592045356,289.8042148184274
1057832,-282.5030126633831,-284.4858002882691,288.6825949348909
1057833,-281.6869617012919,-284.1234927067507,289.9750624374607
1057834,-281.66517342728696,-284.1117852963109,289.99724613659106
1057835,-281.1987898710831,-283.89869855954777,290.71285020877724
1057836,-281.84738735792706,-283.22090139582104,290.85950046197536
1057837,-281.9292004530847,-283.15781426826163,290.4419714890679
1057838,-281.5631586250454,-283.4959130031172,290.7971334631306
1057839,-282.25027903828516,-283.53481509765686,290.0063486182337
1057840,-282.73314742043215,-284.4247466682068,290.2691339019472
1057841,-281.8255884999845,-286.02821191202867,290.37230668356887
1057842,-281.0288111924852,-286.3421890175972,290.1973918770278
1057843,-281.1954739395689,-286.75796896426834,290.1605097151908
1057844,-282.08793420513854,-286.14757659679367,289.3462058172476
1057845,-282.12297637940196,-286.4807969075333,289.86628819565743
1057846,-282.04109533740854,-286.6435719662288,290.23849659095515
1057847,-281.7316512659545,-286.98504838256974,290.5870867648265
1057848,-281.65294612709454,-287.0671297630407,290.06023374333
1057849,-282.3521077769971,-286.5711103082387,290.3169397121549
1057850,-282.55189890162677,-286.9068824783276,290.4516266905142
1057851,-282.6990093302667,-286.6142041662683,290.50800139106866
1057852,-283.45418565651033,-285.91437794369045,289.95073301044243
1057853,-283.5657447529698,-285.2058030786379,290.13050288391133
1057854,-283.47966831934013,-286.2579591796655,290.3589320706829
1057855,-283.3437221823414,-286.4014590539412,290.02732620425707
1057856,-284.28168312177917,-286.5384655588248,290.10426140919657
1057857,-284.02410059245227,-285.85031783771177,290.61445413424985
1057858,-284.1873206827058,-285.4914865148798,291.7261438424765
1057859,-284.11839308996895,-285.6218787960375,292.730259977045
1057860,-283.24609676894937,-286.1255465212561,292.50039670498103
1057861,-284.24486091437456,-285.95392398386457,291.6543052906545
1057862,-284.8009129190947,-285.23832108527284,291.25803943079325
1057863,-284.6031606990296,-285.33753647027953,290.98123773244424
1057864,-285.1984495507205,-284.407136092831,291.1068770467666
1057865,-284.75453789803606,-284.29969161290205,291.29670392509894
1057866,-284.57314185562876,-284.5773012716623,291.9133017607285
1057867,-284.7437422553044,-284.5992964155198,290.74741431041156
1057868,-284.79615842775905,-284.5458094663823,291.7041745399684
1057869,-285.10600875924814,-284.70484902469497,292.10934362655576
1057870,-285.15097107442944,-284.3132915410944,292.7022318702652
1057871,-284.9932644186368,-284.47693490094287,292.6024884608983
1057872,-285.64906216258623,-285.6794550123733,291.908638767229
1057873,-285.7654314157857,-285.6609565795089,291.61101310970395
1057874,-285.75813675480947,-284.7485942163308,290.869592530504
1057875,-285.82663552614576,-284.4296603906546,290.49431220337453
1057876,-285.73525224985923,-283.8151113189477,290.2118106038191
1057877,-285.02767294159264,-283.9992463608016,291.1857986366033
1057878,-284.7083734972321,-284.4003819580434,291.37228124242665
1057879,-284.02545579121886,-284.0034540932586,291.3827480535074
1057880,-283.3028454174592,-283.47814118310333,291.86467801472463
1057881,-282.7303259577168,-283.6424988103291,291.61217580325035
1057882,-282.3183996430094,-284.57038307218744,291.3788079922128
1057883,-282.5969978048318,-284.87850212786265,291.439997260817
1057884,-283.20069114405925,-285.38831006360687,290.61184256387656
1057885,-282.7733673249114,-285.4424222434132,290.8592734189186
1057886,-282.807826571556,-284.83796887879186,291.1059807816036
1057887,-282.92184627161095,-285.45496154866686,291.85240592095647
1057888,-282.80265540945214,-285.82501926835107,291.56421528475585
1057889,-281.9397848465112,-285.97845496416363,291.0090297868501
1057890,-282.7562285817577,-285.6167535897177,291.6419260598698
1057891,-282.4402643103507,-285.7310202182251,291.6323185755816
1057892,-282.61136394783716,-285.5467300123946,292.3619819070058
1057893,-282.65322325412956,-284.576600403222,291.50474647786837
1057894,-282.3499275153439,-284.92484436402066,290.8328815363641
1057895,-282.88592958370117,-285.49562069282314,291.07987941059775
1057896,-283.371546959222,-285.01244679208924,290.93457901951143
1057897,-283.2715093134891,-284.6867680632123,291.3517229576952
1057898,-284.307254910739,-284.7490076075511,291.5630040332504
1057899,-284.3848432339758,-283.7209051876572,291.78021308540514
1057900,-283.0955935525211,-283.9256158389255,291.99515146887575
1057901,-283.3010991217787,-283.6287026230163,291.4658344284159
1057902,-283.26737058456183,-283.34659445439934,291.4415600847229
1057903,-283.2869449667613,-283.0658678976483,290.95350642732717
1057904,-283.79214882880973,-283.4224902447071,291.3896330734909
1057905,-283.88773506931733,-283.7078252050901,291.2285884936991
1057906,-283.8896585525486,-284.16753660384757,291.2977719340523
1057907,-283.86054149690824,-284.10715784293217,291.33319538509403
1057908,-283.0342654838298,-283.88884962645244,291.4130469722176
1057909,-283.31771468353645,-284.6276146931616,291.88444193341047
1057910,-283.47769460898706,-284.80202578569083,292.2048527078413
1057911,-283.6412588209666,-285.2442313275632,291.8054186825543
1057912,-283.15224304665685,-285.68180159632783,291.50236021732786
1057913,-283.36299184339174,-286.36832141944967,291.4452669376535
1057914,-283.2866801388071,-286.53242395686505,291.8728840705094
1057915,-283.24601592202356,-285.94898157701016,291.6628632608269
1057916,-283.51885134446167,-285.6600582486022,291.0696405421605
1057917,-283.6370672710395,-286.1506763020853,290.75296975477016
1057918,-284.27528335289776,-286.38750375753136,291.2506652434394
1057919,-284.81912694884045,-286.2012158760568,291.5745245153206
1057920,-284.40907163593033,-286.5947621701883,290.72088241768745
1057921,-284.91221112581036,-285.68845873840786,290.4123418676865
1057922,-285.4300793637443,-285.1695979820871,290.38720088401334
1057923,-284.5582470179154,-285.00966711537797,289.4511179991986
1057924,-284.0087598488526,-285.71754046687136,289.2360989316907
1057925,-283.73030151636834,-285.3959054497426,289.13921404954004
1057926,-282.9231045507453,-284.5749838527644,289.34831416343707
1057927,-282.9330931623621,-284.7568245650108,289.7894142197332
1057928,-283.14690171127944,-284.6844536765609,290.21284808694077
1057929,-283.45491671342694,-285.30269905602967,290.30683753688135
1057930,-283.29932849020173,-285.24946287753994,291.2152120990558
1057931,-283.29230693100374,-284.8116470549234,291.0290905908232
1057932,-283.07962498863446,-285.0777386497835,291.3899493336468
1057933,-282.74629071014243,-284.8070443044274,292.54883036311514
1057934,-281.48323246956596,-284.98580309133183,292.6199869501781
1057935,-281.11730349668835,-285.2123153401272,292.30871982917375
1057936,-280.7058507305983,-284.1450209162111,292.6066044775499
1057937,-279.93827403346864,-284.16613871989347,292.7480296679597
1057938,-279.87198596383683,-284.0964849985969,292.04854971245135
1057939,-280.4382152290723,-283.71609367643083,292.29045732952113
1057940,-280.02284829691763,-283.6743540903883,292.434605906503
1057941,-281.10059201513417,-283.6839541349551,293.2923297641187
1057942,-280.98507088012093,-283.8412627868119,293.0353955407617
1057943,-281.16312659186286,-284.31717593858457,293.3631789476364
1057944,-281.3848876562572,-284.63176024243313,292.1787881429249
1057945,-281.2728648316755,-283.9095196639249,291.62411252464693
1057946,-281.1220335245517,-283.7022869081898,291.25902511327274
1057947,-281.1767787983588,-284.6658277101689,291.36397404978715
1057948,-281.24201995161894,-285.08470767358295,291.4937449502372
1057949,-280.8916235251004,-284.88269323814797,291.3686081767208
1057950,-280.45518883101954,-285.31227410742684,291.7227062133922
1057951,-280.78223166959924,-285.3696499983497,290.918173935788
1057952,-280.0065508666006,-286.0595720031932,290.8637232618206
1057953,-279.8590186669231,-285.21922554823584,290.9304717582534
1057954,-280.0207303644382,-284.7781184154076,291.87595365946197
1057955,-279.9429347808159,-284.55103475734535,291.4953029756218
1057956,-279.2739748019197,-285.0252266227856,292.0444077356042
1057957,-278.5987876000025,-286.3524470874482,291.3819843340729
1057958,-279.1211586735241,-286.8437150565371,292.0641738946121
1057959,-278.6128210657482,-286.7387965755004,292.2319133982578
1057960,-278.0383304128002,-286.9839818186108,292.7470170895001
1057961,-277.57330058913004,-286.9347505866354,292.6804635239594
1057962,-276.02506188271116,-286.52851223499016,292.31295975274793
1057963,-276.3128426645186,-286.4029158258001,292.0244073773217
1057964,-276.1500569540012,-285.8353417769946,292.6392582764174
1057965,-277.3243190145334,-284.7264167283987,292.31661298302924
1057966,-278.169998766211,-284.9793126274363,292.5703989749429
1057967,-277.9477237403854,-284.55222032589523,292.93716656640987
1057968,-278.8213166248818,-284.9063481790002,292.52280830890214
1057969,-278.2954223829387,-284.653010930416,292.4114567845562
1057970,-277.489039999074,-284.53344822162256,292.60123686644675
1057971,-276.78081715828984,-283.89326360414026,292.6169256814038
1057972,-277.0018518154315,-283.27978665963695,292.6279681288856
1057973,-275.8436166584821,-283.528668503023,292.4524080998164
1057974,-275.6683075622147,-284.02498781533467,292.279417546661
1057975,-276.43332773935975,-283.83277523654033,291.245974834835
1057976,-276.8760570897322,-283.6416556541972,291.6139413313184
1057977,-276.5193118933692,-283.680666855821,292.18269162900157
1057978,-276.64025762927986,-284.2194614885761,292.1298775457364
1057979,-276.4612829013164,-283.178848062951,291.8872043356425
1057980,-276.5627454731138,-282.99008388205704,292.02265438069657
1057981,-276.1464736064677,-282.9541860014108,292.42059346351215
1057982,-275.98441285007505,-282.289092980453,292.3069380439844
1057983,-276.369091990431,-282.1357118459357,291.79546851838944
1057984,-275.8195458900674,-281.46211054083534,291.9691346123805
1057985,-275.8603497654191,-281.49018108884667,292.55895544466154
1057986,-276.38314530735573,-281.1078505492267,293.0045623175906
1057987,-276.52820806013904,-281.3323727699414,293.2339854888043
1057988,-276.8993957224846,-281.0772095390889,293.9406737049581
1057989,-277.36039896434914,-281.2492395993772,293.8454329187694
1057990,-277.10115021749755,-280.5583571745038,293.2547045687437
1057991,-276.70822610709786,-280.768982692217,293.83367050214446
1057992,-277.0644389525489,-280.763092466854,294.099659308226
1057993,-277.6899683336143,-280.5091117623561,294.236575794691
1057994,-277.7957901110933,-280.17172005101975,294.9009043361884
1057995,-277.9650989576776,-279.9963391403934,294.5484790738532
1057996,-278.4940761872456,-279.66857013639924,293.85387868583825
1057997,-279.0746725653504,-279.6495150497551,294.4896302240417
1057998,-278.6673084264013,-278.88510718233425,294.3882684525321
1057999,-278.8686668968334,-279.4060287923857,294.85250164128365
