sample,gyro_x,gyro_y,gyro_z
1048500,-321.59821696572686,-291.0746886843536,276.6429244822046
1048501,-321.6402947273296,-291.59917602937537,276.51304188122475
1048502,-321.9982550479193,-292.50810257650096,276.5846079429719
1048503,-322.280851556477,-292.74504765491827,277.73133084316004
1048504,-320.95590714554714,-292.5180873605038,277.49954480237375
1048505,-321.58012319341583,-292.24488559787534,276.70123530392107
1048506,-321.25629638130613,-291.8257459025897,276.2418458192057
1048507,-321.1734695136868,-291.22847261773194,277.32794450729347
1048508,-320.09783657420286,-291.47776307902325,277.5879212668504
1048509,-319.2646267856134,-291.8484795114935,277.67483537195824
1048510,-319.5044134690845,-292.1922210181348,277.3737035632039
1048511,-320.07126123315084,-292.9520981742409,277.7498191740408
1048512,-320.07399386708425,-293.14716659302223,277.27495831898034
1048513,-320.4520078375229,-293.25704457399877,276.85228813507285
1048514,-320.5830604529567,-292.8620141961787,276.39627449292846
1048515,-320.21304350530033,-293.05434211875064,276.5073542272284
1048516,-320.09400393720927,-291.8428298946181,276.76604976625936
1048517,-321.1555555365422,-291.68639272340073,276.4940700507471
1048518,-321.30924306844815,-291.63872218573937,276.3289591992133
1048519,-320.7968257542057,-291.186945901376,276.36265778604786
1048520,-321.16146313679263,-290.921885311916,275.3526452130187
1048521,-321.4815624749275,-291.26099989162526,275.2422175836323
1048522,-320.96250407926414,-292.01936031901903,275.7372292910473
1048523,-320.9737396935015,-291.69702112301707,275.5395236078003
1048524,-320.5435922288509,-291.6996125188186,274.6050096929845
1048525,-320.9048026108901,-292.1694179944721,273.9148673859777
1048526,-321.22469937847995,-292.18763174995314,274.07480425603785
1048527,-322.34204321661235,-292.56395674636246,273.5287630250763
1048528,-322.4398902303447,-292.2852896670649,273.3240393613921
1048529,-322.08794845492724,-293.126198405349,272.6375138933116
1048530,-322.0258607065102,-292.4653052119302,273.09034165175797
1048531,-321.7976739821513,-292.547041124323,272.3489645015457
1048532,-321.48383693692006,-292.88274920263416,272.603730254327
1048533,-321.39258341257437,-293.1029809054768,273.1102803618209
1048534,-321.16124161091545,-293.7328561097229,272.70112982735463
1048535,-320.42088722081223,-293.7639839963207,272.15129436058896
1048536,-320.4843838521242,-293.6645490407612,271.49042958104843
1048537,-321.03926683311414,-294.1318260655782,271.5874182856866
1048538,-320.81225837443776,-293.50134600742405,271.655790332178
1048539,-320.66840632428153,-293.79452814893074,270.8937738499405
1048540,-319.8967326214509,-293.6554462812822,271.03185931247987
1048541,-319.2899495894381,-293.20990683917,271.2807173522716
1048542,-319.2950009236012,-293.4372699349074,271.3982209363771
1048543,-319.6392543133758,-293.77086079219146,271.2860344627875
1048544,-320.3324897664539,-292.70285783819327,271.9948189406531
1048545,-320.5937967922465,-292.8672732708875,271.7992181211993
1048546,-320.8111445934537,-293.00560307230705,272.30916038463465
1048547,-320.91183395842387,-292.49359878977646,272.65976629989336
1048548,-320.8622388245016,-292.8785374581898,272.88511687905606
1048549,-320.5006262922005,-293.5667753222847,272.6172112398385
1048550,-319.881465054932,-293.7635289793114,273.2174465878499
1048551,-319.22606057843615,-293.7652965019331,273.76351079813594
1048552,-318.90372049914333,-293.7868090551962,274.1289926812738
1048553,-319.4776564301242,-294.0003261922503,273.8450384923577
1048554,-319.45046302286283,-293.707239731917,274.1579919611762
1048555,-319.7197698480332,-293.9447447562102,273.7409846550626
1048556,-319.4326105652337,-294.1594212415052,273.3136048165883
1048557,-319.65993094373675,-293.47834479962575,272.8701663703191
1048558,-320.1396108848352,-292.91629298467603,273.24183236787223
1048559,-320.0005356951406,-293.75735115404893,273.64868789113035
1048560,-320.5761287629514,-294.30867547827467,273.9080018630437
1048561,-320.42979616593556,-293.8840784546325,273.84522116168773
1048562,-320.4842446372179,-293.98255142217175,274.04448152327063
1048563,-321.1680333796124,-294.4907816350893,275.0339126647754
1048564,-320.3769793318895,-292.91985544167215,274.8431220011014
1048565,-319.94170957144155,-293.02350923659276,274.79630911422856
1048566,-319.36300660880005,-293.52269263774156,274.95270419912714
1048567,-320.0989592586936,-293.7215283654577,274.097246197411
1048568,-320.06550099139315,-293.75857873960587,273.99290662142266
1048569,-319.23040609550304,-293.1178973877494,274.016567423795
1048570,-318.8564643674768,-292.31744736322867,274.1124510415758
1048571,-319.1243727993938,-292.1787983508181,273.05396927772017
1048572,-319.2744693927658,-291.4641701785585,274.0831481879701
1048573,-319.25907946222685,-291.6732619532491,273.79031908679616
1048574,-318.68511654036047,-291.7349409805115,273.29419288637905
1048575,-318.9626800858926,-291.55543617066394,272.7031115710487
1048576,-318.55774016651196,-291.48226415614954,272.6295430346688
1048577,-318.99175561149565,-291.55083543839925,273.2739625300447
1048578,-319.38380941332935,-291.74704354015205,273.90251688200317
1048579,-318.9591567333095,-291.4547837085286,272.6779700433864
1048580,-318.9934683431133,-291.3241321305857,272.8654777707138
1048581,-319.4992444701356,-291.75074319856475,272.5304877323131
1048582,-319.8500813312225,-291.1648574447592,273.0888494300794
1048583,-320.1559481723714,-291.5688347927329,274.0109904395413
1048584,-319.99138266649106,-291.53321053462196,273.3583353460225
1048585,-320.2103701616984,-291.23852365062,273.39536188072185
1048586,-320.41949389980414,-291.3831513215644,272.9011251760375
1048587,-319.76171016015905,-291.47015834465554,273.45618267602174
1048588,-319.5933011703909,-292.23771221856225,273.8181066950896
1048589,-319.5778381755299,-291.37295659239766,273.6495322239875
1048590,-318.86154976087516,-291.2088427311482,273.4969927978599
1048591,-319.5484733604003,-291.30124099448307,273.81310767338636
1048592,-319.9773115333518,-291.29295408122044,273.58494801164704
1048593,-319.61151265840465,-291.091019287021,273.65199216086364
1048594,-318.90716959776387,-291.4372964187689,273.6370598908798
1048595,-319.41054959174437,-290.8296817331308,272.1100372669185
1048596,-319.30006080021485,-291.8973162117845,271.54226153300976
1048597,-318.95545564016936,-292.4340577954181,271.14698092049116
1048598,-319.03139038600096,-292.2135816884092,270.87848254818726
1048599,-318.97737846104,-292.81487995786387,269.79558530756134
1048600,-319.4014089423571,-293.051875510023,269.5460949761545
1048601,-320.09591228810365,-293.0502321876549,269.77153362808923
1048602,-318.84460162018604,-292.88631436995234,270.1008139332072
1048603,-318.6890028766341,-293.5906389217855,270.3541327831709
1048604,-318.43743975043446,-292.99381971504624,269.4968658990034
1048605,-317.5910991998936,-293.0129255197616,269.78757183880765
1048606,-318.10814939679824,-292.7330249127533,269.1805140575902
1048607,-318.54855744278444,-292.9010168245208,269.92094114749176
1048608,-319.17677899670764,-293.11189187620255,270.1372091196271
1048609,-318.8363877004654,-292.870479106617,270.3460982346595
1048610,-319.130300065698,-293.4417547534322,270.32744624460264
1048611,-318.8541551244731,-292.88117508565733,270.60942102432983
1048612,-318.8846089313598,-293.5718479157852,269.71408935764015
1048613,-319.29331678882625,-294.0253083553424,269.3165124550463
1048614,-320.023069225723,-293.86357831673627,269.32960571650256
1048615,-320.2480386685117,-294.1469519352863,268.34826244859613
1048616,-320.0380402049331,-293.82728072928336,268.8018236369363
1048617,-319.62641754452204,-293.984969041074,268.9352581160084
1048618,-319.8742433756885,-294.16024423713935,269.73027068606547
1048619,-319.66345713853866,-293.80747918815774,269.6787535942295
1048620,-320.1208709668242,-293.3481667287773,271.14718575723145
1048621,-319.7147131352118,-293.2132313052329,271.0197397206445
1048622,-320.36764303031526,-293.7809016134923,270.9199394461896
1048623,-320.12546673905365,-292.991799169033,271.14413287717554
1048624,-319.5899058776289,-292.9880551847053,270.9526051145528
1048625,-319.1414562035848,-292.4139608447632,270.72323783764875
1048626,-319.82600889384724,-292.17440497220593,269.9941020796913
1048627,-319.77669452070705,-292.0179850990144,269.87696814459406
1048628,-320.0367742982234,-292.2193568147275,270.2010299408105
1048629,-319.3587187872733,-292.52506770865756,270.2175050189576
1048630,-319.22048031513594,-292.78806842478264,270.93165317718916
1048631,-319.30296904621355,-292.5834540344779,270.32306665197376
1048632,-319.56061052507175,-293.1253163968283,271.13065411424196
1048633,-318.8428575670137,-293.0847011325398,271.07894662271235
1048634,-319.66808855666056,-293.1202087378625,270.65532263390924
1048635,-320.2793128938468,-294.028935376402,270.42064573677794
1048636,-320.7796973662453,-293.1894773840109,271.8429460167478
1048637,-320.13134335939776,-293.67334002611045,271.4382381745097
1048638,-320.7913107875992,-293.48827301043315,271.4990473416087
1048639,-320.5913575338467,-293.9350268869001,271.5787397738473
1048640,-320.94119655389807,-294.19131629612104,271.47620095930745
1048641,-320.7725165721561,-293.9907040645921,271.60002633047236
1048642,-320.9681484636048,-293.4926688762811,272.0211735236321
1048643,-319.9688424901912,-293.56292564173253,272.8488353096458
1048644,-320.34874654736205,-293.8054223217075,273.5553372921
1048645,-320.51479220768,-293.8183289437685,274.0995523094936
1048646,-320.3980772125074,-294.0718373990182,274.7808806642035
1048647,-320.15854757167216,-294.20644894952716,274.9490133057258
1048648,-320.72718608064616,-292.8969954793607,275.18880623987667
1048649,-320.9516430369793,-292.5539346301524,273.5978874386763
1048650,-320.28544140777416,-293.22057067684466,273.34384464960226
1048651,-320.3137719220843,-293.03850256958896,273.70083095928277
1048652,-319.4394538291697,-292.70677895068206,272.8970938423337
1048653,-319.41629463544757,-293.57863603751167,272.79405023923863
1048654,-318.99502615341993,-293.5245853663233,272.8739220149573
1048655,-318.4452763405904,-292.636083419965,273.10320931312503
1048656,-318.5721333159784,-292.5012017098795,272.7047969625394
1048657,-318.9400722503482,-292.6263438521173,271.3997064225686
1048658,-318.66735600118346,-293.3552600394973,272.01074358628796
1048659,-318.3190896738774,-293.7301979496603,271.48523602106405
1048660,-318.2447967662338,-292.7034291902985,271.3928183013776
1048661,-317.9584435479154,-292.4100020679723,271.5190371379164
1048662,-318.49749317211945,-292.1775619572852,272.6336927030497
1048663,-318.3877372606017,-292.7784403631952,272.0535517107875
1048664,-318.810169677414,-293.5241185369474,272.1161594641669
1048665,-318.554448285782,-293.7000146853322,271.7488245076285
1048666,-318.3054964540929,-295.48173259584865,271.60596204365805
1048667,-317.5636614297922,-296.17315387212574,271.7457861112373
1048668,-317.56964839354924,-296.63427658581094,272.227274164062
1048669,-316.8882821400603,-297.31315724808826,272.516708350444
1048670,-317.1449872706108,-296.75142928317695,272.01072585275534
1048671,-317.0663482500234,-296.0223414885872,272.00299964153714
1048672,-316.9413321664458,-296.23834733148647,272.57550538771136
1048673,-317.10991281114894,-295.7943815672908,273.08428305501786
1048674,-316.6572511027604,-295.15298670525317,273.3688691545637
1048675,-317.06553157721004,-295.75584377124017,273.7849598735932
1048676,-316.6505429380929,-294.93248379609753,274.1269496694
1048677,-316.88710480938914,-294.2937366610747,273.24625255421745
1048678,-317.3135694597118,-294.5183063205691,273.1443100062423
1048679,-317.19785272591554,-294.2200814379935,272.8419255284473
1048680,-317.40590705577694,-295.1212588640051,272.6172638235211
1048681,-317.33067802818204,-294.2205732646005,272.54429911667097
1048682,-316.671233624105,-294.22141346065973,272.81711904621
1048683,-316.5722771820522,-293.48431503308035,272.78565927999944
1048684,-316.3147423781857,-293.45003730548353,272.7670176200337
1048685,-316.22119752537765,-294.0411351778733,273.2296796191148
1048686,-315.7825885845975,-294.1907021794506,272.3629345797327
1048687,-315.7716416353029,-293.71208405533304,272.62849095109715
1048688,-315.99938125599624,-292.8549932237449,272.97142973301084
1048689,-315.91299121413647,-292.01226286005493,273.5694888365144
1048690,-315.7771092984293,-292.2968965395092,273.46366716383125
1048691,-315.3789942709598,-292.7164790190538,273.25927404775155
1048692,-315.0410172880127,-292.83490244095344,273.3788009733453
1048693,-315.2897014484585,-291.74061576641225,273.7416471029742
1048694,-314.9353908541835,-292.02977609670177,273.6063637720352
1048695,-316.0603373083643,-291.60396405612227,274.1984896074609
1048696,-317.0447995783819,-291.9773056424915,273.7691020855494
1048697,-316.8098812839154,-291.98959691747024,273.7356251660582
1048698,-316.5651930609038,-291.99960013677986,274.04223735653744
1048699,-316.37386245578983,-292.0617445300616,274.66903167445116
1048700,-316.6134568638066,-292.0871754826031,274.9600772805279
1048701,-316.90863261973254,-291.1069693380056,275.6580275175441
1048702,-317.1219964917878,-290.32933814191676,275.552004772439
1048703,-317.9819109541441,-290.15750927748064,275.8281304883818
1048704,-317.9820943419546,-289.91399995732075,275.96683100499274
1048705,-317.82734050453354,-290.03360019560773,276.0234244599606
1048706,-317.8101113192534,-289.7571951351419,275.7972266356133
1048707,-318.7681061623438,-289.77057342645196,275.9368763678707
1048708,-318.8687743741723,-289.37566121927927,275.49337641594633
1048709,-319.11005302158475,-289.3656360199251,275.517196875935
1048710,-318.94494385226085,-289.38495971277854,275.456884412946
1048711,-318.1355472758626,-289.82574388668513,275.2071691289071
1048712,-318.21831225363525,-289.2372297534973,274.27546646755184
1048713,-318.6310194807459,-288.48750876976015,274.8225295372175
1048714,-319.0490674957001,-289.10076529072285,274.38177707892146
1048715,-319.5422182683674,-289.00011953382597,274.3397481405027
1048716,-319.5162033069939,-288.33387623994906,274.40882128768527
1048717,-319.9283817769861,-287.9283985682918,273.6747070673066
1048718,-319.32259114322795,-288.03326468052273,273.68439523816335
1048719,-319.8846327406682,-288.6817418099638,273.3363661740594
1048720,-319.8026159253834,-289.1004193602786,273.5806838329939
1048721,-319.70602402458707,-290.3241659741117,272.3888456230177
1048722,-320.01732729398407,-289.729863252712,272.2867118145276
1048723,-320.4650309478661,-289.7819611359783,272.28530619002004
1048724,-321.40387027258976,-290.2220858937905,271.98154199215344
1048725,-321.7072541517465,-289.89306192879394,272.050203190941
1048726,-321.8086332445243,-289.88640064984804,271.86440106243566
1048727,-322.27985308185407,-289.7198304210261,271.8883348983224
1048728,-322.5330910185929,-289.8551316764503,272.0572402673009
1048729,-322.7050515079804,-289.95459646344693,271.482415317367
1048730,-322.7229734483346,-289.92220233837656,272.3967507159678
1048731,-323.15378659156994,-290.9960945400094,271.8934533790688
1048732,-323.9515494224165,-291.2096554078853,271.04861859011004
1048733,-323.98650276707946,-291.6585981990265,270.99753662800015
1048734,-322.54907922194997,-291.51993735502793,271.8089708465403
1048735,-323.3854042815494,-290.59514499538966,272.238465649458
1048736,-322.58212207031465,-290.8022383014622,272.33334602238455
1048737,-322.55721478085064,-290.58731851146473,271.65320101277905
1048738,-322.25114046715714,-291.26204469503267,272.099076044628
1048739,-322.88137725398644,-291.55440045147776,272.3963994557333
1048740,-323.4434635904719,-291.33681519367707,272.53016264976964
1048741,-323.0104116602862,-291.42925776574856,273.4089689446588
1048742,-322.7588591853644,-290.955302759725,273.81499157492874
1048743,-322.26741152504053,-291.39167347672117,272.9822062318255
1048744,-322.1561993285038,-291.82415723183834,273.07293759079914
1048745,-322.58610822050446,-291.6574877149012,272.6831842502638
1048746,-322.9131478282571,-292.0300227405255,272.4818279900088
1048747,-322.4106318375507,-292.0924349391121,273.0047896895771
1048748,-321.9290828723597,-291.65172174353967,273.9734940346272
1048749,-322.49563067023007,-291.5148352982226,274.76488098187036
1048750,-323.5316782127037,-291.7615416830019,275.1272335227122
1048751,-323.947725384752,-291.44422682839837,275.3034783670256
1048752,-324.22790339142625,-292.05279624132805,275.3671264026437
1048753,-324.5609115164433,-292.01673543717726,274.83093385582185
1048754,-324.88505222169573,-291.4151028178571,275.50952758994924
1048755,-323.35093690894064,-291.9803453994506,276.2251508795733
1048756,-324.3179261316498,-291.68626059862277,275.55750345562024
1048757,-323.7781294836091,-293.22351532219,275.10831164372865
1048758,-323.6996420580637,-292.1429179114467,275.18564485727217
1048759,-323.50644754071953,-291.8249298241532,275.26811571636796
1048760,-323.3357658683269,-291.1815671363943,275.20893904202086
1048761,-322.79058894341955,-291.31300798488735,275.6820329502159
1048762,-322.8662729729742,-291.1569890395091,276.3875133510578
1048763,-323.23848954937705,-290.90411305411607,276.58028824986144
1048764,-322.63683174188174,-291.00532055092515,277.52329937438844
1048765,-323.0092542655352,-292.1871674192019,278.21945848264835
1048766,-323.6459580508472,-293.37826231707663,278.53213237534385
1048767,-323.45156486098267,-294.22652292920253,277.8643069619273
1048768,-322.705010810945,-294.0661599966472,277.7635189912833
1048769,-321.60870652212526,-294.2958447005312,278.1023118714356
1048770,-321.57460792479117,-294.8920031247524,277.4508923722798
1048771,-320.8999408960273,-295.2635650831748,276.8920447036066
1048772,-320.22207531965927,-295.5628281382089,277.2573251920189
1048773,-319.94235389497516,-295.8885071451402,278.2573654386377
1048774,-319.91419358473365,-295.9088360001326,278.66309477762195
1048775,-319.0094728382646,-296.21294258359603,278.7751540719512
1048776,-320.09572447833375,-297.03317837589384,277.52725758770083
1048777,-319.19737833520406,-297.36449205490226,277.0275147925271
1048778,-320.2693054390832,-297.26680232789096,277.41306765140683
1048779,-320.3835787770393,-297.26807079005846,277.74411767125616
1048780,-320.54271728705163,-297.0992309059654,278.19132768851694
1048781,-320.6377853587889,-297.93394341789315,277.7875290336048
1048782,-321.11588552081116,-297.3743659131743,278.5331467399936
1048783,-321.84616005075077,-297.4662736088571,277.78497458019893
1048784,-322.33732490643933,-297.29539831725003,277.8842039624074
1048785,-322.23663553787196,-298.06235868028784,277.52380356959867
1048786,-322.5338493613602,-296.89499357739504,278.00379143684046
1048787,-322.23467074360235,-296.89341586067934,277.29447123396113
1048788,-322.7004633459724,-297.940997656748,277.57358890797406
1048789,-322.4535326355052,-297.744470331175,278.02284066443184
1048790,-322.46230486166456,-297.83761017251976,277.1032455213453
1048791,-322.6123741225971,-298.1506171080071,276.47633644761345
1048792,-322.96328894241884,-298.0770703277667,275.96480987612654
1048793,-322.4071800782482,-298.18128024095716,276.4812247540975
1048794,-322.1908800022104,-297.5396034892675,276.8202625700828
1048795,-322.59289055620775,-297.5873234302339,277.1277748215557
1048796,-322.6144242220194,-297.5978812368557,276.5968868310663
1048797,-322.0497700185863,-297.93469002660953,276.5156866487122
1048798,-321.01762541245927,-297.59644662808296,277.4897606025832
1048799,-320.9212380013873,-296.6672238952417,277.5734939930808
1048800,-321.46666428086473,-297.45364257688095,277.2299494345914
1048801,-320.57723930462043,-297.88888552983,277.23534970258333
1048802,-321.1217289985992,-298.2050940688186,277.82885989779425
1048803,-321.89286689007275,-297.56245350090654,278.7601467305629
1048804,-322.43493394715296,-297.3817825872241,278.31557773496246
1048805,-321.8209189412231,-297.4452029093807,278.813224767588
1048806,-321.3090205265723,-297.54406786886267,278.9053474930446
1048807,-319.8920983911729,-297.39389238252704,279.20335869727563
1048808,-319.5487479513061,-297.866139448056,277.8506430738443
1048809,-320.2811477656461,-297.41519338025,278.67087215744687
1048810,-320.94630716744257,-296.6809171624316,278.3276894403182
1048811,-320.46223164449214,-297.8792483390451,278.2541939651192
1048812,-320.4453039542726,-297.38198930487323,278.2543794946166
1048813,-320.7664950479956,-296.6191078339258,278.97481477006613
1048814,-320.7332644861254,-296.8759311957713,278.90429873627977
1048815,-321.6297747986869,-296.8258071933704,278.2142825682261
1048816,-322.37282998712374,-296.61606303510115,277.5615273544791
1048817,-322.657830043172,-297.5008319584082,278.17648020547716
1048818,-321.34473252887295,-297.8404533069168,278.4523064526767
1048819,-321.20373287305745,-297.3226809208655,277.7564823092267
1048820,-321.80446654589997,-296.9453718702564,277.64871551265225
1048821,-321.7760262420648,-296.32475483332206,277.79043825878995
1048822,-321.419659568363,-295.8816423328844,278.49607733454724
1048823,-321.0903200397612,-296.51845652475873,278.6708045413686
1048824,-322.09434829417467,-295.68414453795884,278.70004659884904
1048825,-322.3273442480461,-296.2483308795385,279.34120077004235
1048826,-322.3586047395376,-295.6315038717834,279.08683070949786
1048827,-321.86495575138815,-295.3795159152097,278.54466280049263
1048828,-321.6821991342485,-295.20757932191657,279.04214567652286
1048829,-321.31713857216243,-294.7328319554663,279.19031963233033
1048830,-321.48901992670426,-294.9964024838929,278.95357204025066
1048831,-320.1887633488821,-294.57126239046073,279.7921190669752
1048832,-320.236921590886,-294.64731907071587,280.06872736902903
1048833,-318.87880849970816,-294.84308973453267,280.1816533373363
1048834,-318.67402331779243,-294.50004044156225,280.14905482700806
1048835,-318.33208831524075,-293.92337294819254,279.8111751201331
1048836,-317.81619294881534,-294.49932966142,279.7374396386497
1048837,-317.2715956863012,-295.3167296524695,279.34198606919387
1048838,-318.21498983985333,-295.657929900451,279.12161734526535
1048839,-318.82764814076285,-296.5669982300156,278.69622103493685
1048840,-319.0954319169178,-296.07917018072754,279.1868919904267
1048841,-318.99455568449423,-296.1522771754585,279.20940801481055
1048842,-319.43110293017213,-296.4590655797861,278.76023211699186
1048843,-318.4972722201574,-297.2096521444321,278.7635479488621
1048844,-318.6725156056672,-297.2177465648587,278.3516864567807
1048845,-318.48343602453457,-297.37719330749115,277.3872804732652
1048846,-318.4142761286077,-297.4751456959882,277.82548859059006
1048847,-318.64748861814337,-297.16387942142273,278.48301952815956
1048848,-319.475226534305,-297.3112704082788,278.2419037462063
1048849,-320.17511670059673,-296.8445371293334,278.8981635631026
1048850,-319.5549353145445,-296.9328115112895,278.51668896937144
1048851,-320.0760043955052,-297.0100837895172,279.1391962792266
1048852,-319.93202283207853,-296.2444303070853,279.0636768965707
1048853,-320.1996169588484,-295.80132394332503,279.204626283678
1048854,-320.23427978352396,-296.26896918424035,279.95774842790405
1048855,-320.18182939960235,-295.7738682388808,280.4269765316481
1048856,-320.3393127968766,-295.688761638143,279.8930482135707
1048857,-319.56218757931134,-294.4476054882796,279.9059646820227
1048858,-319.09070186978397,-294.88022809766557,279.29566577052503
1048859,-318.8632358154951,-294.3410267548531,279.63102837976015
1048860,-319.078243070628,-295.2770953151417,279.72968893568475
1048861,-319.1163472244948,-294.64973053396466,279.00461649451506
1048862,-318.97192076331487,-294.6074391080392,279.4775576529439
1048863,-318.3959086375105,-294.734480928918,279.63926177988316
1048864,-319.197211429916,-294.1957136992332,280.53496027755125
1048865,-318.9688073641665,-294.23076005672556,280.5754801288637
1048866,-319.0846428040486,-293.5047991498001,281.0568219513373
1048867,-318.7155642781323,-293.87158822628186,280.9219701218967
1048868,-318.7820496947458,-294.3232116954396,281.18912097882344
1048869,-319.53337644012646,-293.77744090070604,280.6345268163826
1048870,-319.3635868938527,-293.8109372773045,280.479380071349
1048871,-319.24638088801606,-294.1890470413012,278.8752781051979
1048872,-318.86889277694064,-293.709444039089,278.5947811272866
1048873,-319.1391960721657,-294.0535270081063,278.12151446753813
1048874,-319.63493998211374,-293.8054432464969,277.7154607027304
1048875,-319.6569201862947,-294.00013097991274,277.7184434534757
1048876,-319.5741400809818,-293.7063944230202,276.8715801969166
1048877,-319.0584228013705,-293.62118782234137,277.0828226390467
1048878,-319.37204704985106,-293.9749954798559,277.19444251245017
1048879,-319.680435161093,-293.75301441127186,276.6411145598934
1048880,-320.2134284595869,-293.21533949009535,276.09489043205247
1048881,-320.04407236677014,-292.45492578985784,276.1545515961285
1048882,-319.6114972918762,-292.07752033224506,276.25738486391253
1048883,-320.9807796884731,-292.3676249193667,275.7239974478913
1048884,-321.6267139044909,-292.8708786594465,274.8311538810808
1048885,-321.7804797683736,-293.3440710849813,274.50595932776946
1048886,-322.60714750623384,-293.8510159166177,274.04852769131065
1048887,-322.57328139365643,-293.66695775842066,273.86616661416207
1048888,-323.1866494578001,-293.20275727654945,273.7476745900475
1048889,-323.33853844601384,-293.0997804863274,273.5473076466257
1048890,-322.79520665459216,-293.3372785973097,273.1926965188461
1048891,-322.853267223466,-292.8423691862957,273.94217692268666
1048892,-322.990553188575,-292.176393795424,274.72591695162055
1048893,-322.97568996223424,-292.53829724642,275.1581237454711
1048894,-323.194154596444,-293.4431430691983,275.46547657252665
1048895,-324.54734526438847,-293.6891803054823,274.74418245457287
1048896,-324.5339360244285,-293.248110337708,273.7499834486763
1048897,-325.23350460912695,-293.4234986154178,273.8497176777018
1048898,-324.3758229379062,-293.66076421506114,273.17433031465436
1048899,-324.5635543061146,-293.72833112973956,272.83339932873974
1048900,-324.70655838437006,-293.459621130108,272.91231055518267
1048901,-324.27534587651996,-293.2183024849632,272.8222601015888
1048902,-324.8121069902662,-292.48814148422497,272.5018015187042
1048903,-326.2226152279918,-291.8538799803108,272.7422245656396
1048904,-326.6870125493567,-293.23564846279174,272.6266688469106
1048905,-327.22983464358293,-293.9771118335908,271.8725854420944
1048906,-327.83565762578417,-294.55444970997627,271.11089809988437
1048907,-328.6682761132029,-294.97095730317744,270.4977724268634
1048908,-329.29162039061845,-295.68180784191844,269.98867307702227
1048909,-329.62971982252657,-295.56669789677045,270.1180060182454
1048910,-330.0712018245081,-295.71794133701434,270.1753179962308
1048911,-331.2900052110237,-295.9729326394022,270.09604429376327
1048912,-331.34714202601623,-295.4130894241689,269.38534252881675
1048913,-330.4957029356034,-294.88316371190086,269.12888200567767
1048914,-331.2959885992114,-295.5578762497217,268.96079890436164
1048915,-330.74160982081133,-294.8232890974499,269.8580356270548
1048916,-330.6204371511598,-295.20990908236,269.4452166539028
1048917,-330.4665718699581,-295.01434166816847,268.4484173232587
1048918,-330.7821463954412,-294.90290411843847,268.2522207677555
1048919,-329.54888224850265,-294.5922217856999,268.89926476552847
1048920,-330.01658395634246,-294.8208397516331,268.3735866281033
1048921,-330.46037171272263,-295.11047178380045,268.0323367699744
1048922,-331.2390434228804,-295.582178190987,268.0126311189691
1048923,-332.14291715834054,-295.6958881487252,267.9162706366009
1048924,-331.4752460045559,-296.8374667599433,267.2948004406761
1048925,-331.0227062621558,-297.08278733934725,267.54517086075236
1048926,-331.2363632669093,-296.385222803666,267.7908441331172
1048927,-331.0298212584435,-295.89724068399596,267.4753064589784
1048928,-330.92598115733836,-296.1376749871492,267.6742988070147
1048929,-330.7469391729715,-296.73683410585926,268.5094563828863
1048930,-329.9935036238529,-296.799618392965,267.8391533374621
1048931,-330.5312653133842,-296.66661061440516,268.3699794393286
1048932,-330.22123006065186,-297.1013715782314,268.96885820663476
1048933,-330.18513850068064,-296.5905976420079,268.7192465133923
1048934,-330.4531206122207,-296.5014987623833,268.54548553407506
1048935,-330.6117530139926,-296.39642674745585,268.0268117740169
1048936,-331.3455971048531,-295.96075351977225,269.0496316986494
1048937,-330.8826353110148,-295.8599017774688,268.69150752126245
1048938,-330.7734510423386,-295.25803801632134,268.3820382867963
1048939,-331.25993221763747,-295.16303342226155,267.83924549528166
1048940,-330.97169671408307,-294.5165935936804,266.8738278686797
1048941,-331.41876920547173,-294.0496989058001,265.90603719757723
1048942,-330.16853744093214,-294.47986216482747,265.9378814581553
1048943,-330.16554094902864,-294.41071993557614,265.6245178414925
1048944,-329.9741735542374,-294.0066756140114,266.08277916088764
1048945,-329.6342560673839,-294.373917482612,266.49966523952565
1048946,-329.9998352288245,-293.8972952261134,266.65035808699423
1048947,-330.1325704311515,-293.6789270639564,267.4511555817464
1048948,-329.76827176622317,-292.85298161091987,267.980866623024
1048949,-329.14992257101994,-292.7879772307993,268.27584886213265
1048950,-328.47549437558905,-293.54540867757555,268.06927686821575
1048951,-329.1270836600775,-294.6774940231611,268.4722470012851
1048952,-328.41554144360356,-294.3369485044098,267.47764524396604
1048953,-327.9964389973909,-294.6072689187131,267.7273423229903
1048954,-328.0161389413707,-295.1982947710855,267.99269410380384
1048955,-327.219924443076,-295.5461754286762,268.3403007624566
1048956,-327.31120098177405,-295.36799845402595,268.0752573152325
1048957,-327.2929035309051,-295.51052388006843,268.27782985164157
1048958,-327.07101281077564,-295.10539805222703,268.07605784611906
1048959,-326.9085675183223,-295.3135366216249,268.2772851415251
1048960,-327.55972251432365,-295.08694713884677,268.6535668425948
1048961,-327.38754502107207,-295.64878367077637,269.70769517905984
1048962,-327.656633415373,-296.43500551303305,270.18950265399593
1048963,-328.7604049709033,-296.6189140312723,270.67701753433784
1048964,-329.08113811369196,-297.9522889844607,270.6354310247435
1048965,-329.08488062117794,-298.20382419487044,270.14489193305695
1048966,-329.78815354826,-298.12670939906997,270.02366060278973
1048967,-329.4792386036983,-299.7905107349954,270.815929226786
1048968,-329.1492708140148,-299.2567873858636,271.68543689259104
1048969,-329.59146787844736,-299.03232959909496,271.7910778704963
1048970,-329.5841712709319,-298.2911024581633,272.0757314263371
1048971,-329.1094396012351,-297.8135716862357,271.80113204982143
1048972,-329.11146133574573,-297.64720298924135,272.3651046397881
1048973,-329.7484728733992,-298.93198731604554,272.1087763736004
1048974,-329.28688404840534,-298.5611949841115,271.4872561656495
1048975,-329.25384306537086,-299.2764657904444,271.39243264951205
1048976,-329.99112163346297,-298.9235866194633,271.56417935155014
1048977,-330.0433440651559,-299.1471858841792,271.69070373035845
1048978,-330.0317894613932,-298.69207768858115,271.93152753620586
1048979,-330.7020210071386,-298.3753729946208,271.31220256681496
1048980,-331.0097923394018,-298.7766290318923,271.0581484021812
1048981,-331.87683903249433,-298.7187162413974,270.45031137900185
1048982,-331.3026264293402,-299.4725720898051,269.9327560278841
1048983,-331.2106388628987,-299.4803776295704,270.15006133252183
1048984,-331.0100610577897,-299.47881926212403,270.5833464605942
1048985,-331.00123534895255,-299.83675034968076,270.41856122485876
1048986,-330.5574356119802,-300.18066580466865,271.347338824582
1048987,-330.54952789761313,-299.99042502414744,271.2679752275409
1048988,-331.27403969397244,-300.7430472728593,272.0292080804932
1048989,-331.5791468833996,-300.2731714077554,272.59835080142494
1048990,-331.109767011775,-300.8332699325942,272.45780487478237
1048991,-330.9743040201822,-300.42305810115755,271.94978491544543
1048992,-330.6223938149257,-300.0770224620953,271.6146550231762
1048993,-329.67312113932303,-301.2275220316585,271.2496913205378
1048994,-329.5519326277733,-301.69503137593006,270.7466386680939
1048995,-328.9775995019211,-301.89390325441866,270.5543644130771
1048996,-329.6714957322989,-300.96438424353244,270.3993099457119
1048997,-329.51435650213716,-301.1899339205142,270.04499536547723
1048998,-329.1438791754175,-300.48088070791994,270.34534477444527
1048999,-328.88774576729656,-300.661749187,270.42457745585347
