sample,gyro_x,gyro_y,gyro_z
1030500,-310.4383193733148,-156.0746824066862,316.30451289287214
1030501,-310.45468475240324,-156.31032684502503,316.01036263637104
1030502,-310.17477813868976,-156.968651888594,315.27933526193016
1030503,-310.37453406426397,-156.4539897044534,315.40311120411775
1030504,-310.9312004101186,-156.4229213866328,314.96756200977836
1030505,-309.6559590063699,-156.96728926966745,314.6977572421142
1030506,-310.1011932795782,-157.01117560303481,314.1140097686613
1030507,-309.7371569342785,-157.26420645741845,313.92997641827714
1030508,-309.38774451912957,-156.79433205978427,314.22656537204824
1030509,-310.5331022555313,-156.45215155523456,315.31483972495033
1030510,-310.7951762872859,-156.22744231150702,316.483276675813
1030511,-309.7808743620255,-156.64933326968966,315.8296629814493
1030512,-309.62452505792163,-156.7455566427935,315.7921807165928
1030513,-309.6748145361728,-157.05109754697435,315.4756485551925
1030514,-309.4878735912579,-157.71692091844685,315.6725311234361
1030515,-309.39160535289204,-157.5412152539069,316.04851649303345
1030516,-308.84220297782707,-157.63498346427687,316.09276531481254
1030517,-309.1842510271398,-157.30184482416897,316.258643303577
1030518,-309.76988926832763,-156.8665893878159,315.15370114128257
1030519,-310.2330666842309,-156.83170568957374,314.71825802692473
1030520,-309.60234230331275,-156.8140140793119,314.35245542595914
1030521,-308.9117250735847,-156.8620913894998,314.88188141563893
1030522,-308.8960856638777,-156.9811621100297,314.2511415954986
1030523,-309.3998394331352,-157.48153511033098,314.52092894220283
1030524,-309.7046321858052,-157.43311014561672,314.01799859596997
1030525,-308.5392968239677,-157.3492500714831,314.01928668264844
1030526,-308.8147449114718,-156.65463072348612,314.34992725503326
1030527,-309.0585649075611,-155.94169041456843,314.4242148275828
1030528,-308.9641703340197,-155.94475808386275,314.5869675143566
1030529,-309.29470191137574,-156.03133235352666,313.9704737326504
1030530,-309.3245129084518,-156.47470409828244,313.67388121573026
1030531,-308.5211529037128,-156.81487457067973,313.3399941636477
1030532,-308.3202634501389,-157.15209936870679,313.69819075039834
1030533,-308.43560608800055,-157.64911973755616,313.76074451973034
1030534,-309.2422588047626,-157.42292767478637,314.3534732193983
1030535,-309.3419459165513,-157.56432401650855,314.37892280848257
1030536,-309.0967107709087,-158.50460115628937,313.7010502117426
1030537,-309.0409307803774,-157.82669450191105,313.72450797436426
1030538,-308.8115217047966,-157.0207145379904,313.9039161658102
1030539,-309.37011250611545,-156.99457493535903,313.3200273277413
1030540,-309.68159961618306,-157.3161733166026,313.6941661671013
1030541,-309.23209139980656,-157.46204752774693,314.6822359851047
1030542,-309.92906263863347,-157.89514910913638,314.87050520338767
1030543,-309.97507569809164,-158.4247618904887,314.68766619104815
1030544,-309.9402256440346,-158.91019912663364,314.3921909723856
1030545,-310.8403755098932,-158.22359391652276,314.33155870324623
1030546,-311.20036199038543,-158.41370709322112,314.42781229227586
1030547,-312.06340870586956,-158.47083050228468,313.935739950884
1030548,-311.5911529451494,-159.51968403396387,313.8418320448928
1030549,-311.31401285170233,-160.4514372303896,314.7631585629272
1030550,-310.76661592388626,-160.3634647768399,315.85369494671227
1030551,-310.7376796540845,-160.122007875721,315.4907765085746
1030552,-310.065016479999,-160.31559766012026,316.0462115721311
1030553,-310.63469445599833,-159.9833704755802,314.6721068830864
1030554,-311.08372464100216,-160.70869921201145,315.32615107654385
1030555,-310.8428588611062,-160.7233702542628,315.41048148728134
1030556,-310.60985188089705,-160.41974008124922,315.5248655758329
1030557,-309.81264005039725,-159.67104862712955,315.9357481621327
1030558,-310.198040528428,-159.8274817680823,315.21871959347936
1030559,-309.94409512360465,-159.66218380813885,315.66682461251315
1030560,-309.7982800341151,-160.43121501011362,315.7643949839432
1030561,-309.6472136129033,-159.81618082874996,315.74575438281494
1030562,-308.4021232225867,-159.71492601591854,315.7700768176149
1030563,-308.9330491785414,-159.3914640984322,316.20746974459456
1030564,-309.3869083286058,-160.1128727313016,315.67027787872115
1030565,-309.9385381986897,-159.95490886797856,314.80623888849595
1030566,-309.15830710955356,-160.27894930522942,315.3708047644352
1030567,-309.1010662566072,-160.28287133238464,314.44666603514156
1030568,-308.33106309022435,-160.73894578439834,314.4997476644346
1030569,-308.4694785591341,-161.31918470120746,314.2935893029676
1030570,-308.6949489965793,-160.8583249491624,313.8750693122436
1030571,-307.8420849005575,-160.91446353190332,314.788649488215
1030572,-308.1331704851385,-161.1617046254686,314.108399173389
1030573,-308.666081904595,-160.84008429687475,313.9871476125374
1030574,-307.6648971879298,-160.19994364642875,313.9115872009683
1030575,-308.5687772963162,-159.33903433497295,314.6250391162305
1030576,-308.7194169571698,-159.40111653504636,314.5669339425441
1030577,-308.9490264892824,-160.04338129432497,314.34608589679954
1030578,-308.9218734517332,-160.39733583306443,314.37380997850664
1030579,-309.31242898153687,-160.7005249614573,314.2390808479144
1030580,-308.6536149056722,-160.9394084756205,314.16400514334805
1030581,-308.17824503948356,-160.44164024524426,314.1703152869192
1030582,-308.17129610293983,-160.3373796340665,313.9600860892412
1030583,-308.59586764594275,-159.82322349435552,314.2006545033362
1030584,-309.38866175439773,-159.22128722919612,313.4263132272972
1030585,-309.7194895170635,-158.47523009420593,312.9073246693009
1030586,-309.4270962510378,-158.38701179976482,312.97629738006265
1030587,-309.9991730880185,-158.47234536608678,313.16614543020654
1030588,-310.0772137520811,-158.21273258773948,313.72100697046926
1030589,-310.6661722988161,-159.01431970392525,312.95570849610505
1030590,-310.2237971277562,-158.79244902024587,312.9480707255341
1030591,-310.0357030396611,-158.67862823670555,313.00585840415494
1030592,-309.51134301397826,-159.46551608306356,314.03859500210075
1030593,-309.21607238421353,-160.50268370848556,314.2244510062277
1030594,-309.34067729925306,-160.48300863037113,314.634757850982
1030595,-309.1429204715356,-160.53893937160817,314.25898967943937
1030596,-309.58283139797254,-160.37125948718287,313.9543846146454
1030597,-309.24246493097,-160.01669772351988,314.70176176714915
1030598,-309.76201902684915,-159.3669192641964,314.2997299802006
1030599,-310.113531102892,-159.81730670212946,314.5495293547694
1030600,-309.3906191056424,-160.14682498082965,314.1507362775535
1030601,-309.0714749299679,-159.92129298726707,313.7425748021686
1030602,-309.2367665707256,-159.76638747069117,313.5306039766739
1030603,-308.5572126343815,-159.2725500486342,313.16775534497026
1030604,-309.25920044622427,-159.32475155538063,312.9117985777308
1030605,-309.35959734863604,-158.8905354566916,312.26835592090424
1030606,-308.94487122880287,-158.08813056395152,312.54000845358985
1030607,-308.84826328438095,-158.1004821646167,312.4342815490707
1030608,-309.69381153631764,-159.1166832567174,312.20022143214595
1030609,-309.3851752517852,-159.25094377327568,311.994065818129
1030610,-310.05217673890724,-159.51171956016168,312.105753428099
1030611,-309.9293876324971,-159.25762640148523,312.7775091609955
1030612,-309.55927924819537,-158.94102029666004,312.8258465703293
1030613,-309.15246767536723,-160.32121411098137,312.2847868746398
1030614,-310.05751045321216,-159.963323747751,312.60135680034045
1030615,-309.3497457550587,-160.19043379644575,312.6352027382167
1030616,-309.3620765643094,-161.52558480849825,313.07226360613623
1030617,-310.018466258435,-161.64728575077612,312.65753538248816
1030618,-309.6740787953265,-162.2887880686732,312.72364198930666
1030619,-309.58567855837475,-162.72044112032543,312.8530833462844
1030620,-309.98615697155105,-162.4143827664845,312.72809255839667
1030621,-309.964140054061,-163.41599182995594,313.74115012063817
1030622,-309.97881011499584,-163.62407695755232,313.593598020853
1030623,-309.9527315901147,-164.49978439068514,314.5297956528873
1030624,-310.1434388890968,-164.94903751240724,315.5274899051469
1030625,-310.4697170913916,-165.1722890634166,315.0512604818293
1030626,-310.3967769037331,-164.97013263040935,315.1223734331935
1030627,-309.8904717837229,-164.5272403307269,314.62075248245816
1030628,-310.38182925769655,-164.65111383037328,315.2608568396595
1030629,-309.91814518819035,-165.46258603847386,314.2792171747981
1030630,-310.10494933265784,-165.26256589653948,313.6046942070609
1030631,-309.6905929804994,-164.7834703519435,313.68790503695175
1030632,-309.16538328141615,-164.74461358288755,312.7182888053375
1030633,-309.8111874777462,-165.54087394309775,313.46644854521355
1030634,-310.51157447209664,-165.55762480895493,313.54616758513674
1030635,-309.70569888803425,-165.30747636297994,313.7198663605611
1030636,-310.1918190501404,-165.83406392615544,313.9419740855064
1030637,-309.3838805291431,-165.6650410287778,314.314482674671
1030638,-308.3232100862939,-165.68443830963562,314.2087426012195
1030639,-308.90071319969576,-165.6915402381456,314.6486779117576
1030640,-308.51786993106793,-166.41930204587516,314.1801045346533
1030641,-308.8507276679792,-165.94290435381907,314.4216683917608
1030642,-308.2973470235387,-165.28615620164317,315.2144824188369
1030643,-308.68458390726937,-165.3591631342014,315.15287141635133
1030644,-308.65376587281304,-165.73323165450435,314.5525975193575
1030645,-308.0623562963222,-166.2276368468429,315.3734523561339
1030646,-307.50237761344545,-165.87355968226152,314.95761950367046
1030647,-306.4826111347351,-165.89861235905238,314.80923414712436
1030648,-306.6186905124715,-166.30770396727138,314.768783376178
1030649,-306.08724718114564,-166.05348099993677,315.5603902208533
1030650,-306.3400710772276,-165.95255181891324,315.5103652596085
1030651,-306.10915051935933,-166.25245100596587,315.8821440472243
1030652,-306.4233773090314,-166.17728884844675,316.0180594492982
1030653,-305.96696500195407,-165.6145832313691,316.4896072637128
1030654,-306.2749570759845,-165.11793823496808,316.04720456846445
1030655,-305.8103498310924,-164.18911219935046,315.999130524728
1030656,-305.3260168643056,-165.05560285921754,315.8276380695117
1030657,-305.15985282371486,-164.78509168040583,315.39011280116085
1030658,-304.40619242749034,-164.37821138317733,315.58368782488066
1030659,-305.6147274555497,-164.3784545908064,317.1310190528918
1030660,-305.5534121860227,-165.04637308060217,317.1833174726761
1030661,-304.8478917510228,-164.96031761020194,316.83481396457057
1030662,-305.0675936776428,-165.65540487577758,317.977530055872
1030663,-304.76775403655097,-166.34431043388335,318.0882371829283
1030664,-304.94176064357436,-166.831758077381,318.1228051777563
1030665,-306.0154543282699,-166.78885905190944,318.1838952325389
1030666,-305.75639350035897,-167.12981897252112,318.03634166949325
1030667,-305.59500062209923,-166.75414051055762,317.5175397272131
1030668,-305.37452323327966,-166.17636062505912,317.6031132266778
1030669,-305.84049432582964,-166.71962079126854,316.9469832310529
1030670,-306.52394285079873,-166.3868563025767,317.6268833068945
1030671,-306.4896421472958,-166.27947206688705,317.32848483434304
1030672,-307.7754736945609,-165.49991515211127,317.00584415517494
1030673,-308.0750910974336,-164.89375816976036,317.59606338321123
1030674,-308.87691178224486,-164.63457141956977,316.46640551497745
1030675,-309.2620245524416,-164.8873434292766,316.51411615747463
1030676,-308.69347868450836,-164.5238704255356,317.1193433427879
1030677,-308.701228886555,-165.07671503104348,316.00582946845566
1030678,-308.8257218489422,-165.86782177640896,316.67060662165903
1030679,-309.9837550798383,-165.62082306484226,317.50364044335583
1030680,-309.04927372405507,-165.48154640988517,317.17203518055607
1030681,-307.9847433540261,-165.21544372599848,317.5281400578205
1030682,-308.4934800663986,-165.19343241480092,316.9721389588367
1030683,-308.52768730742673,-166.0250068279496,316.7563510005402
1030684,-308.9723169450208,-166.16768498583534,317.69967606716483
1030685,-308.1157661943191,-165.50235410801895,318.2128644061121
1030686,-307.3645255267482,-165.43526089949515,318.83587382923645
1030687,-307.3490818055269,-165.48745135489366,318.6598807998365
1030688,-307.9337035728107,-165.878779613032,319.00377559454455
1030689,-307.8453078039023,-166.14693959637654,318.9870956777409
1030690,-308.01232208359903,-166.0765542191962,319.4752090570072
1030691,-307.81009070091625,-165.55434338095637,319.2996678901358
1030692,-307.67543379445266,-166.3804536042245,319.1384060222276
1030693,-307.59200788553954,-166.96038747946525,320.33033160779763
1030694,-308.38950567701016,-167.0018415638407,321.01141803984166
1030695,-309.0344973311518,-166.95246199192593,320.6285561083272
1030696,-308.0838133074792,-167.48056521614674,321.2489572223269
1030697,-308.52598848276295,-167.09720213875036,321.00311359252225
1030698,-307.7947363005238,-166.70889263942237,319.8795800832638
1030699,-307.36184894160726,-167.49775483665903,319.68232339172505
1030700,-306.75133161128815,-166.46072080319772,320.14616116573217
1030701,-306.62717269645486,-166.60949879093027,319.736246442361
1030702,-306.6835797408269,-167.3770832253602,319.70161880023596
1030703,-306.2429814457989,-166.80638015163535,318.34774871258014
1030704,-306.4102303113746,-166.20766540446937,318.0954311466005
1030705,-306.08521564026364,-165.50417916159094,317.83595791098264
1030706,-305.8528771889745,-165.4738899932484,318.5460685938993
1030707,-306.1919229580096,-165.2919985289302,319.3113262685162
1030708,-305.3225773064592,-166.34547361708385,319.0919923459166
1030709,-304.27455735171117,-166.49437526648097,319.5041335720613
1030710,-304.7657934094395,-165.78461575542968,320.08692785233114
1030711,-305.41732721760656,-165.71729858985566,320.6519090048869
1030712,-306.1011070949774,-165.64258723621117,321.43962653124
1030713,-305.90904003942353,-165.53597509690692,321.5228532856038
1030714,-306.3579205213453,-165.3566424117304,321.4272170102455
1030715,-305.99768008192797,-164.75853473793123,321.6687702365475
1030716,-306.67044672632215,-164.28572192854742,322.2987316114227
1030717,-306.70229669448815,-163.93438489931134,323.25903285330406
1030718,-306.80423294850516,-163.69812011071787,323.29788372818695
1030719,-306.91085890369084,-163.65376555366896,323.40504989331413
1030720,-306.67937543386137,-163.89812543946996,323.40706214881806
1030721,-306.7424211421077,-164.0568604199907,323.63545011316063
1030722,-306.62991461183674,-164.23261704445616,323.7451907199706
1030723,-305.16683790086915,-164.55601617280692,323.77812205587776
1030724,-305.657029024658,-165.3642939141933,324.4314381169426
1030725,-305.4046766172046,-166.03341257065958,324.46549521607403
1030726,-305.8272020463146,-165.96835220978673,324.6182888547234
1030727,-306.24841140406926,-166.52537233587393,325.1709637359346
1030728,-305.95858436006046,-166.5844289802743,325.0465852682526
1030729,-306.4434654316971,-166.03171179194038,325.28334525201205
1030730,-306.35188970557994,-165.9832691511626,325.4531699804983
1030731,-305.91812127698375,-166.1353239400268,325.7211461718907
1030732,-307.0857379866791,-166.5885509969471,325.3750500983962
1030733,-307.2542373186215,-165.71323032784622,326.2087280128064
1030734,-306.9547625623819,-165.05522057743332,326.41126039587834
1030735,-306.1906667276777,-164.64159190503878,327.2117764197864
1030736,-307.04504561149736,-164.66332540191823,326.4401890412477
1030737,-306.5083088370591,-164.38872012453496,327.2543437218454
1030738,-306.88584418133263,-163.920522460838,327.5683086315133
1030739,-305.7017419555322,-162.7756257183436,327.9188190486631
1030740,-305.94350047418067,-162.6212541285568,328.13904186258804
1030741,-305.79097003013663,-161.1150743916294,328.3850624139484
1030742,-304.84647640544705,-160.61604291663565,328.0962355402099
1030743,-304.91810217591353,-160.51311866107056,328.3958374828886
1030744,-305.1062968844965,-160.49338426054268,327.26520342325017
1030745,-304.4793428519362,-160.64055388049903,328.128026123142
1030746,-304.82520568010153,-160.14190812119725,328.4917715701382
1030747,-304.42535352521145,-161.45058303118,328.9271614176189
1030748,-304.4090235197914,-161.74693559395985,329.1219030261784
1030749,-305.77971173430797,-162.27443502420823,328.6831896432131
1030750,-306.05471642888955,-162.73889229840273,328.0325900914643
1030751,-306.1443151852431,-163.08341913674036,328.5796221929576
1030752,-305.7416429635419,-163.80621821899032,328.1197760293815
1030753,-306.0728789077385,-163.63351703211043,328.32917118291226
1030754,-305.9914362290833,-164.96709009382403,328.243910952668
1030755,-305.81368632704215,-164.81533229979783,328.4321860424868
1030756,-306.0883756423042,-165.2423807256184,328.0732920711028
1030757,-305.71660977364456,-165.0983868342788,328.02616166266165
1030758,-305.92024773271106,-164.6285100755203,328.02792410914424
1030759,-306.20661518526396,-164.54305041193516,328.4152159457804
1030760,-307.0153240696024,-165.4086321764402,328.85441546810995
1030761,-306.6663508402378,-166.02480223662405,329.72622051817973
1030762,-307.4967651861694,-166.46166894638196,330.1891171412156
1030763,-306.9408317242982,-166.66069275242486,330.08533350262144
1030764,-305.7881991661323,-167.25120390794777,330.5534122165965
1030765,-305.2129824964402,-167.25981096240153,330.80169621663737
1030766,-304.85747681072985,-167.9294241297711,330.50309919257495
1030767,-305.2175368517766,-168.46507460669392,330.7319460887378
1030768,-304.60338626609365,-168.39739251707735,331.10263120134124
1030769,-305.41023291959175,-169.11351105531187,330.8664078449763
1030770,-305.32679833468154,-168.13744102289198,330.91381819062434
1030771,-306.0584315365307,-167.30325969477593,331.3265538754743
1030772,-306.1497945624654,-167.42056156080673,331.93492239167443
1030773,-305.6256157074586,-167.3629802536072,332.2842851252333
1030774,-304.72279508073774,-167.57502232327994,332.4829846085498
1030775,-304.6352251626324,-167.17943565499314,332.836156244026
1030776,-305.432951281569,-166.9294443396033,331.87758998658774
1030777,-305.81323990768635,-166.65529183625168,331.715557493474
1030778,-306.6671292294015,-166.35835826258628,332.100768981215
1030779,-306.552295002238,-166.15076933863887,332.1329207113055
1030780,-305.502804767582,-165.9696728489928,332.58643204117203
1030781,-305.71601383214505,-166.81143758280325,332.71868593531366
1030782,-306.53037065734,-167.8457971559795,332.3998232219805
1030783,-307.5204771415554,-167.59748105977448,332.349531332385
1030784,-307.6481060372462,-167.9993168570183,331.8462983557088
1030785,-308.13610777092873,-168.30569503240037,332.363645770065
1030786,-308.62669516472687,-168.1262445652082,332.5073036487014
1030787,-308.55720414343193,-168.72736135859913,332.4460932535319
1030788,-307.47648636117503,-168.50069335691225,332.6017120071903
1030789,-306.81684464023687,-169.03360980104833,332.627898023189
1030790,-307.04180261076306,-169.09730804775128,333.5685558951306
1030791,-307.36392099782876,-168.2290932812222,334.00564170188915
1030792,-307.3233365384801,-168.6826932634212,334.8226293070967
1030793,-307.061250691024,-167.65714190524028,335.0390360036743
1030794,-307.3378017975493,-167.17306071976685,335.3543077721704
1030795,-306.494600550507,-167.61343754447347,336.57186489795185
1030796,-307.25638852374135,-168.0087383616271,336.5784442922521
1030797,-306.94973252487875,-168.02846809902763,336.45014000526015
1030798,-306.296802342839,-168.30938285649947,336.6091361792945
1030799,-306.92729135004566,-168.26797826893826,337.1050012054486
1030800,-306.3979689706146,-167.94894415176353,337.23954682556956
1030801,-306.5148500745792,-167.81241752587152,337.654211262819
1030802,-306.6551730502292,-167.4876304433001,338.8698345606846
1030803,-306.29011858667565,-167.64889730870615,339.12491163840923
1030804,-306.21687159923744,-167.64471242346053,339.1142158513477
1030805,-305.9694586263075,-167.22719167998096,339.1330062287725
1030806,-306.1357612646439,-167.4636427625549,339.6762762775493
1030807,-306.2946684349173,-168.18563220801252,339.8194661920776
1030808,-306.30217736611365,-168.27775672400466,340.32066554909954
1030809,-306.6208670007324,-169.10540024395794,341.0830764622988
1030810,-307.28905015884044,-169.61849957835162,340.77059922514644
1030811,-307.44368433555644,-169.703356070274,341.1189188612751
1030812,-308.04206919985205,-169.71554801640602,340.5654714221809
1030813,-307.644901719097,-170.12901662918836,340.5634411143702
1030814,-307.8249272204162,-170.34208417821958,340.674872271763
1030815,-308.18165805133594,-169.4794544481161,339.8889099399601
1030816,-307.59630633702795,-170.10414591826296,340.140621532492
1030817,-307.96391107683695,-170.5745607669066,339.6754389376541
1030818,-308.51153667662743,-170.29820389838036,339.2617952082201
1030819,-306.9467053402636,-170.0974278364474,340.010278855788
1030820,-307.5434217668653,-170.01995108139158,340.33937323202554
1030821,-307.2232306806104,-170.15944027805153,339.2771998369043
1030822,-308.3530801511403,-170.24120799215905,339.36471667860593
1030823,-309.0686914750948,-170.167836960596,339.0266668294981
1030824,-309.01359677427376,-170.54307490331234,339.7378729334731
1030825,-308.7526346550611,-171.44951482605413,339.7009303357487
1030826,-308.95805538739336,-171.72439465855638,339.3619968970121
1030827,-309.2561028283338,-171.77611225858888,339.7759727793049
1030828,-309.0863734735647,-172.68521723147234,339.59933348693994
1030829,-309.24419603522614,-172.13155612526427,340.07931057665803
1030830,-309.2194959666398,-172.39793061350338,339.0698292985055
1030831,-308.65494049062977,-172.38757119437687,338.756658189013
1030832,-309.4132166714908,-172.98116419584954,339.2220200290635
1030833,-309.3746032293741,-172.8924742588871,339.22518629969386
1030834,-308.80624422077756,-172.80254796936165,338.3030498067483
1030835,-309.2468209354649,-172.63706127873004,338.42170789248445
1030836,-308.8653582411579,-171.71262542161855,338.56236792160286
1030837,-307.89983548016374,-171.09260299106836,337.69923637505354
1030838,-307.89700195661277,-170.76130781173896,336.9555919514378
1030839,-308.1352898827315,-170.68035240665884,337.2267844275216
1030840,-307.7561375618028,-170.64686120473945,337.3382120417245
1030841,-308.7409686079191,-170.7909141405129,337.1196475613756
1030842,-308.56519351911214,-169.84369910602902,336.93849091941854
1030843,-309.36902948789265,-170.03817426562668,335.7020883681663
1030844,-310.1599313526138,-169.5807653452737,335.76989970866435
1030845,-310.79531943312645,-168.97087700353282,334.6919636946126
1030846,-310.28595347516057,-168.89413780114756,334.201655205391
1030847,-309.1612200156215,-168.8496320158692,333.7508012561957
1030848,-309.48817268401876,-168.51530606336667,333.8385047845469
1030849,-309.09836971833676,-168.2856318971781,333.799261539953
1030850,-309.17923976155436,-168.6992380403808,334.18001064833027
1030851,-308.9848516549074,-168.39436552785497,333.0850600253975
1030852,-308.0563518807612,-169.25765847944282,332.4980059361338
1030853,-307.70456384447516,-169.95270699163794,332.76487031225327
1030854,-307.17251565864217,-168.74261813606523,332.9177858499111
1030855,-307.3034591402968,-168.72430760235645,333.50604722765496
1030856,-307.8091792731063,-169.16555191676622,333.9572057543086
1030857,-308.2584488810057,-168.8451176018363,332.91619910122284
1030858,-308.8617563323425,-168.9180029401743,334.0232064895932
1030859,-308.9626174506364,-168.5194689420771,334.3523278547262
1030860,-308.97916045166863,-168.18472781825025,334.7761507805869
1030861,-308.47483295062005,-167.3726307330662,334.79656361500565
1030862,-308.0015710030749,-167.54189483201526,334.4313832487706
1030863,-308.57272815815384,-168.12109139674098,333.8468418550988
1030864,-308.1866642854612,-167.1265689513226,333.60447763498587
1030865,-308.4145076317548,-167.10781108878496,333.6135704893069
1030866,-308.5464246057225,-167.5262637480301,333.16088897531165
1030867,-308.29631881612465,-168.12502011751198,332.93966522753607
1030868,-308.6604625226238,-168.1206897888454,333.54923958810167
1030869,-309.1203736598601,-168.73505095784276,333.7736622577919
1030870,-308.1504440615221,-168.070190793809,333.7972288191204
1030871,-308.4811010626604,-168.39987206129885,334.0897978374846
1030872,-308.7620516923302,-168.10140369464776,333.89944622894143
1030873,-309.5446028523201,-167.71945146856945,333.73681713567976
1030874,-309.21574474111384,-167.5472374340473,334.12775553287224
1030875,-309.3344971011243,-167.6021206841917,334.1252024506378
1030876,-309.33318924711733,-167.3170692694084,333.25326517576036
1030877,-308.60043435541866,-168.1293333954037,333.2489412863581
1030878,-307.96501806683506,-167.94355303242332,333.0187028148264
1030879,-308.0870134226063,-169.371965460811,333.15856483444867
1030880,-307.9400838109013,-169.87517871612656,333.7772374243085
1030881,-308.9236396289139,-170.0700107671509,333.6312887279196
1030882,-307.98991462759375,-170.3228146512806,333.81241070589465
1030883,-307.54496153877705,-169.94957182922084,333.5752595193926
1030884,-307.47642827044706,-170.05329717703384,333.1910395751701
1030885,-306.90650712270474,-169.55040573088075,332.99606421027545
1030886,-306.4649558067462,-169.60890336950143,332.9264294842198
1030887,-307.2751504154991,-170.47086174188416,332.37069009898096
1030888,-307.18921453468073,-170.00269811312907,331.9575673845732
1030889,-306.81841171353767,-169.80982827595855,332.1808400021354
1030890,-306.66610685214863,-169.4023956150856,331.6156716654641
1030891,-306.328095560529,-169.79060977139494,331.00097847536
1030892,-305.9006464281541,-169.9986420655339,331.8397140844305
1030893,-305.78578308936403,-169.44808771934672,332.4872550518155
1030894,-305.70230951439464,-169.37682576017423,331.94878186082974
1030895,-304.5830164639066,-168.9078111886193,331.0804947200415
1030896,-303.678695197755,-168.52332495046224,331.5200225258188
1030897,-303.187421604416,-168.8414875637535,332.0897069098093
1030898,-302.7299949313431,-169.16723454905053,331.36762305935025
1030899,-303.75488784814195,-168.21828607183545,331.10689085063956
1030900,-303.94644590916795,-167.6763226398063,330.6344073042109
1030901,-303.4707690106072,-166.8811636521972,331.0185975862436
1030902,-303.4878357656056,-167.30132770958755,329.6275665345792
1030903,-303.8672688641935,-166.79259171276308,329.8961965814679
1030904,-303.823017682355,-166.6241189328984,330.368818840165
1030905,-304.30271293586804,-166.740103671008,331.0570371639483
1030906,-304.70327009721734,-166.19595748533453,330.66017080673777
1030907,-305.24113727251387,-166.59771204033652,331.34656294219974
1030908,-305.0759476894109,-166.39430219724173,331.0755742362883
1030909,-304.3985517277278,-166.5644086549087,330.3146490536542
1030910,-304.95695570580693,-165.98521391859762,330.7477786897071
1030911,-304.29693331100356,-166.09281676576293,330.4279996936886
1030912,-304.4057464557946,-166.0621692593501,330.9492047414694
1030913,-303.640058455807,-166.31785289222316,331.55834245513864
1030914,-303.89427396244037,-166.24011146243782,332.1447149855997
1030915,-303.34781139876014,-166.07581728644396,331.8748428365016
1030916,-303.3040675148075,-166.77864895725133,331.60648506081196
1030917,-302.6082562784042,-167.30924157216492,331.5942033935456
1030918,-302.79199871654924,-167.4588824662777,331.7744839559978
1030919,-303.6026074490968,-167.42920689555433,331.32897107423247
1030920,-303.8120610981133,-168.0162176861685,331.197470934962
1030921,-304.2973338824436,-167.73107090008452,331.324958175905
1030922,-304.8460223760163,-168.10468790928851,330.87807619067866
1030923,-304.88202166975424,-168.03741018162526,330.7113897984772
1030924,-303.59991073521695,-167.74686792804346,330.32369627916
1030925,-304.14132195034085,-167.0289131862551,331.0904643576106
1030926,-304.37849656384316,-167.57379309581876,331.1484406602571
1030927,-304.2559527732518,-166.77134335956654,331.02599764999127
1030928,-304.1081664253682,-166.62030078366655,330.70384044191974
1030929,-303.2349014720963,-167.229793825449,329.445473260842
1030930,-304.17643473463636,-167.25906267943355,329.29362503169654
1030931,-304.3331046808055,-166.96736357603257,329.6007992175536
1030932,-304.441175292443,-167.35385191925872,328.88701220573023
1030933,-304.27795245960385,-166.57951461099378,328.2402792777159
1030934,-303.9873118016004,-167.20788362709544,328.47301869442566
1030935,-303.5140102406964,-167.58571542571613,327.64520864334276
1030936,-304.1921165500384,-167.78820667744688,327.17961739542494
1030937,-304.8617547729212,-168.76544880380737,326.1233146870504
1030938,-304.9784470196118,-168.55074118125887,325.860798711352
1030939,-304.8405457972239,-168.3604144854141,325.56877385696276
1030940,-304.91340139655125,-168.9490066368417,325.08832108234566
1030941,-305.03592801115593,-168.1512201388908,324.71180391099267
1030942,-304.29298220500453,-167.1879211711974,324.28813568803054
1030943,-304.5888840273639,-167.70832693316976,324.71759337837653
1030944,-304.8032360862261,-167.35127872905932,325.43719293843753
1030945,-304.0898688974618,-167.49370423852915,325.33620873573335
1030946,-304.4493950423701,-168.17030814849727,325.137516820005
1030947,-305.317224998053,-168.14652187928485,325.61437523221775
1030948,-305.3154571011686,-167.75029007509085,326.23851323881644
1030949,-304.40068355796006,-167.8512010685867,326.0806217725194
1030950,-303.4808944385474,-167.56435768724202,326.6002920100924
1030951,-302.53540839378627,-168.6788489087403,326.8946787831849
1030952,-303.2684158304586,-168.50342473348405,326.82723455728967
1030953,-302.1104576901566,-168.5930505017605,327.0256777919374
1030954,-302.6735123620193,-168.28148602958413,327.124268510437
1030955,-301.5951142347566,-169.7430903794005,327.1490700169487
1030956,-300.78987136698294,-169.88687741493356,327.21456825311844
1030957,-300.14812860998643,-168.85416013822334,327.6324188630043
1030958,-300.59313960768543,-168.89285151972993,327.76085356838496
1030959,-300.5363480000446,-168.52011367755532,327.5799760976896
1030960,-300.07921629251433,-168.13231548337149,328.3241719630847
1030961,-300.12330289174207,-168.6024680327931,328.61271677002765
1030962,-299.8294281857969,-168.54213012881024,329.340146538957
1030963,-300.15124163519505,-168.2952283284718,329.342085344359
1030964,-300.5632155007277,-168.52797821432657,329.7702664101336
1030965,-301.08774979359487,-168.45297421833456,329.1135877545348
1030966,-301.1413387394402,-168.54768563463722,329.4566563464311
1030967,-301.48398166549595,-168.654395080443,329.93235500754304
1030968,-300.9861886858604,-168.31416327117756,329.758554852362
1030969,-300.41442245244826,-168.402541405054,330.1539446603121
1030970,-300.3883879744607,-167.60657070282224,330.80047104239026
1030971,-301.1077626371157,-167.55557716997734,330.7299653814431
1030972,-300.5464124206468,-167.52590398262842,330.2154526750111
1030973,-300.7069093938073,-168.43578407353334,330.5357782514426
1030974,-300.02590319560045,-168.37878802878183,330.51552163057653
1030975,-300.0315414517814,-168.14703441014873,330.8569943755152
1030976,-301.04611217727484,-169.06404424419947,330.5976649794694
1030977,-301.57644022954844,-169.2016186525245,330.46777402421156
1030978,-301.31032624652875,-169.29035437780595,331.4716784600313
1030979,-301.22582919929215,-168.58504974822327,331.27448516502415
1030980,-301.63153793730055,-168.43026659630667,331.0225281814339
1030981,-301.9623586910067,-168.78802120291948,330.7834236798373
1030982,-302.261389732462,-169.35789002605964,331.4932414006277
1030983,-301.7515571294286,-169.70260164031365,331.45724328969715
1030984,-302.1854906167698,-169.9665003743837,331.9956723694972
1030985,-302.7067716264971,-170.1129921426541,332.5723219284871
1030986,-302.3641983351334,-169.32283610740174,332.25419405976
1030987,-303.3079957862873,-169.62889752365137,331.7817543844157
1030988,-303.36651400768085,-169.63316091376205,331.802816192607
1030989,-304.6790670398935,-169.56001409046755,330.4458052211039
1030990,-304.3396710332795,-170.3255914916067,331.3802532153851
1030991,-304.70484986363533,-170.44931111684065,331.56696008627426
1030992,-304.1900162706605,-169.89151674366852,331.52737071594936
1030993,-304.27589970111757,-170.68468919147006,332.1224969330658
1030994,-304.57395512700793,-171.30292619316546,332.03846569950616
1030995,-305.1519220063609,-171.52775938032667,332.1103470204001
1030996,-304.63810050127336,-171.10647403694546,331.92893435326823
1030997,-303.6843462088825,-170.8917265088612,330.9749183994842
1030998,-304.404899466594,-171.04940069122551,330.5085790409398
1030999,-304.47950540698946,-171.31666621451026,330.08864668280034
