sample,gyro_x,gyro_y,gyro_z
1053000,-270.7019162027408,-276.19996415128327,277.3090669683422
1053001,-270.394777605162,-275.47748913065544,277.31733676437284
1053002,-269.953329566135,-275.978004758151,277.28731241494285
1053003,-269.6374325293306,-275.61155247189487,277.74963724493335
1053004,-269.6254514027836,-276.36344398507526,279.1908679548544
1053005,-268.8852484269411,-277.1307743215798,278.88613882391536
1053006,-268.2490487481877,-276.9821703078846,279.22947295006594
1053007,-268.3572888088657,-276.70173917807773,279.26894605332865
1053008,-268.43838272483646,-275.92804395461144,280.2404721056619
1053009,-267.088178452814,-276.1542264132524,280.25601895194734
1053010,-267.10872794112214,-276.48239536428395,279.419829650352
1053011,-266.5640996813835,-275.85308228535746,278.44859499883324
1053012,-266.72974875638766,-275.46830288372064,278.6323637144247
1053013,-266.2893177709207,-275.26812974487535,278.3453730607424
1053014,-266.1833340350651,-275.9941361982962,278.86303704478047
1053015,-266.0147722089588,-275.76082487693515,278.91962143627876
1053016,-265.8897394467105,-275.0693553361538,279.42880337179577
1053017,-266.35910119815816,-275.81194551469434,280.2043295515952
1053018,-266.2591032161704,-276.1091166719143,280.4496337090804
1053019,-265.53417098301105,-276.88195927203566,280.07491432915083
1053020,-266.04239456345726,-276.79777753362146,279.7642645429829
1053021,-265.86281240692375,-276.24748927105856,279.01456786428497
1053022,-265.73918240320467,-276.4902487226082,278.6125184618462
1053023,-266.09520538818384,-276.68395060022056,278.47895707458713
1053024,-265.7292650645364,-276.0048829174912,278.7755697515913
1053025,-265.6992617667885,-276.55274945478556,278.37144223463036
1053026,-265.7152065140408,-276.56474859594084,277.9596854977944
1053027,-266.76586451735835,-276.5218272716098,277.9396252186663
1053028,-267.08246742085987,-276.9449384986314,277.4059723811955
1053029,-267.21925774209114,-276.6641246788207,277.0462125066275
1053030,-266.4728483816872,-277.1555438785268,276.44154421075496
1053031,-266.8468628947184,-276.0582228072826,276.5013258377218
1053032,-267.06451948286355,-276.1896489105143,276.4988940366444
1053033,-267.4710675565045,-275.96176859497166,277.0592840282648
1053034,-267.25780707311,-275.761497254277,278.04352886872135
1053035,-267.774087586398,-275.9099492292227,278.3188964446577
1053036,-268.3295152939611,-276.53584229918,278.10988476999944
1053037,-267.54475623798754,-277.3526577755153,277.59837443242964
1053038,-267.66151073516687,-278.12284171448994,277.0036998801617
1053039,-268.6182343467407,-278.077573668487,276.6917821727598
1053040,-268.17922005928665,-278.2191538769839,276.8035954535067
1053041,-268.5935142976302,-278.2017008403286,277.1571403264151
1053042,-267.40060929582984,-278.0563539616455,277.52376141518243
1053043,-267.5679428778808,-278.22554569949136,276.9356717300377
1053044,-266.95286494074594,-278.1505721237932,276.4024741538308
1053045,-266.84858946050036,-278.14575161495844,275.64877483344765
1053046,-267.6912009462004,-278.51969935478644,275.8375513326096
1053047,-268.91019867883693,-279.23714902290885,276.1376231401225
1053048,-269.9171844493885,-279.2922052083266,276.1438234952863
1053049,-270.36721544756966,-279.49574651123197,276.15453927269397
1053050,-269.78193029468747,-279.64669428227376,276.1360485337173
1053051,-269.1484311472546,-279.7285039905847,275.92392434139583
1053052,-269.19667574087555,-279.23597990435513,275.5636944170362
1053053,-269.23153422404215,-279.5066448026046,275.8525725302011
1053054,-269.333652549361,-279.73842515507096,275.5628102954272
1053055,-269.373983043821,-279.6057893515631,275.71599148679826
1053056,-269.16114006445287,-279.3676209958008,275.70432122019264
1053057,-268.9408281684358,-279.3704981297674,275.93112102112076
1053058,-269.1377737298171,-279.9919513274371,275.280471424743
1053059,-269.55010232631514,-280.1292687837079,274.62209968710675
1053060,-269.45999405857594,-280.3521722700271,274.92121616307236
1053061,-270.78856407873997,-280.32023295787536,274.28286785812946
1053062,-270.6345788947206,-279.9956059964225,274.2269795551434
1053063,-271.22244197264547,-279.11691828068314,273.9771608488763
1053064,-270.9077768596955,-279.313035178687,275.34651329730644
1053065,-271.58748945170305,-279.68743778323255,275.560117783394
1053066,-271.7821649363917,-279.02311085967835,275.3982204807597
1053067,-272.0016608407977,-278.53605146008806,275.42954597718955
1053068,-272.1434662858815,-278.64672724078855,274.99633953742733
1053069,-271.9941560221952,-277.85046915850234,275.5034577039716
1053070,-272.61798915248306,-278.43879793845343,275.3857672567442
1053071,-272.7440433068057,-278.82166727478676,275.3242492767215
1053072,-272.1622667637882,-278.9397045884898,275.33934631630996
1053073,-272.0527124181705,-278.9611594353554,275.24172553072543
1053074,-272.22899377564966,-278.7483210344286,275.73145981149213
1053075,-273.31404771496847,-278.2500544248911,275.1854789442952
1053076,-273.29678628854595,-277.83544274309133,275.17557655570806
1053077,-273.8484041593028,-278.96081307956445,276.01763445186106
1053078,-274.1526528385155,-279.81685992949866,275.85516232087286
1053079,-275.0860444342051,-279.1195949512342,276.0267705293376
1053080,-274.4517861440977,-278.891569520655,276.6469972828491
1053081,-274.88783749895407,-279.1642801931651,277.29657532433157
1053082,-275.3076587506647,-279.39429367394644,276.8179427047006
1053083,-275.9157381629661,-278.71733409845007,276.89329532377866
1053084,-276.5727866138794,-279.2141137599535,276.37570328935465
1053085,-275.84235265065564,-279.2733198462291,275.78276128248905
1053086,-275.60063125572697,-277.890784144063,276.0771953831597
1053087,-275.2914811472888,-278.24589434311235,275.40878156281224
1053088,-274.19506265496705,-277.9961424146394,275.36249714701796
1053089,-274.6128802609254,-277.88486673379475,274.79715769034135
1053090,-273.6444261582815,-277.8375547694901,274.5925084768058
1053091,-274.30730949483086,-277.5635508543812,274.48765030741913
1053092,-274.4467414291508,-278.3035876132074,275.0751917156878
1053093,-274.469988642433,-278.3497567499308,275.44113349062377
1053094,-274.0743777468472,-278.1285793784223,275.7234921278743
1053095,-274.26769026092273,-278.0865401570449,276.856326885254
1053096,-274.2229133307635,-279.4584452838882,275.9802481480123
1053097,-274.36538085053604,-279.6819951129606,275.0872749325793
1053098,-274.25497258238494,-280.309590827184,274.49861014237973
1053099,-273.67735901915336,-280.2301879950876,274.41108141884814
1053100,-274.2687828832483,-280.2156960867582,274.1307886273064
1053101,-274.3614944017628,-280.36721961935405,274.0165796016242
1053102,-274.6971575252647,-280.8540616766639,273.5368854801904
1053103,-274.21459866205873,-280.7896295294525,273.9325293172412
1053104,-274.9555812846943,-280.38970299595854,273.63578585980815
1053105,-274.4572399736139,-280.0132228029518,273.1185016725265
1053106,-274.8509941987241,-279.61141523739917,272.59763554455805
1053107,-274.430116864999,-279.64358165536873,271.6909957801485
1053108,-274.3830204787805,-279.70195458069765,271.7596947457532
1053109,-274.22440457679505,-279.45161444137926,272.308029269657
1053110,-273.2674353047851,-280.31197988214666,271.7839603042464
1053111,-273.8561017120663,-279.8561728165816,271.9166860035632
1053112,-273.07602978682917,-279.6673530652424,271.4913293225199
1053113,-272.8781796927384,-279.96975622534035,271.5724351874807
1053114,-272.89588886123335,-280.4309559847807,271.65758595830886
1053115,-272.97397215969335,-279.4647055710246,271.65916777770565
1053116,-272.67331579064205,-279.98843995505484,271.96450395201754
1053117,-273.02538361621686,-280.10106480100956,271.1378476973585
1053118,-273.26655331482993,-280.06459869022024,272.13093437636604
1053119,-271.8592249765034,-280.3905485894526,272.45074830428604
1053120,-272.19338574116654,-280.5608016815238,272.992718810343
1053121,-273.0384846678975,-280.7541217371995,272.6960007766536
1053122,-273.27220084679044,-280.12281595701523,272.638353468603
1053123,-273.0394121411103,-280.15938641810993,273.24609415631954
1053124,-273.04798453963406,-280.00760856367526,273.3743508385697
1053125,-273.2925126919704,-279.5837473309773,272.871200822625
1053126,-274.16450568894703,-279.55844496274506,272.72392528744314
1053127,-273.407297422418,-279.4309029448629,272.6208556932471
1053128,-273.8463026546239,-279.925944232548,272.46418320310045
1053129,-273.50861595282123,-280.3294240524258,272.26351748330706
1053130,-273.1527976150807,-280.2447304246316,272.9346086574923
1053131,-273.58205646421067,-279.9806616375466,272.8858525698709
1053132,-274.02647688790034,-279.5085654449766,272.81757047999776
1053133,-273.7484574432811,-280.0564202940165,272.61083961875806
1053134,-274.32034814201836,-280.3711211719435,272.19004509945177
1053135,-275.0737410737756,-281.0248049630261,272.1792612947739
1053136,-275.3943385122566,-280.6939956767333,271.81008491960756
1053137,-274.9316278733873,-281.444410710475,271.0294144551882
1053138,-275.2330717022449,-280.75184608900156,270.9659552890738
1053139,-275.66449160564474,-279.9393290181206,271.84038594992774
1053140,-276.13627096178254,-279.8370781333153,272.03069344353247
1053141,-275.65537289683607,-280.2210449014302,271.5359884234218
1053142,-275.7231409104663,-280.53757176907146,271.82833179875263
1053143,-276.4101577348915,-280.18782444765714,271.74451159329953
1053144,-275.67200184062295,-280.3079928272775,272.4382397048316
1053145,-276.24424281176096,-280.2549171670875,272.5959476631694
1053146,-276.8463142770307,-279.6790476396739,272.58303741466244
1053147,-277.69976771736157,-280.3238551372905,273.2606129971299
1053148,-278.6710376919973,-280.6038518389191,273.1705497817714
1053149,-278.6957061660024,-280.0476821186563,273.2099337700644
1053150,-278.98982298492285,-279.9478112354196,273.6680395246738
1053151,-278.4794494732156,-280.31900352168816,274.0614902641352
1053152,-278.4153764411072,-280.81665070440687,273.93698999676167
1053153,-278.36033020107465,-280.4576404982836,274.3401251442564
1053154,-277.57040004652674,-280.1035939775539,273.7026479966696
1053155,-278.21515836040766,-279.7520629643178,272.62745753786885
1053156,-278.44676784022136,-280.3082666301472,272.2188231623005
1053157,-278.5557684435149,-281.70022509500114,271.7259473310852
1053158,-279.22393415176316,-281.5630637739834,271.7028339198221
1053159,-279.02400828350113,-281.2451331217532,271.874040358852
1053160,-278.86942271830304,-281.18184881822464,270.8791070942336
1053161,-278.39956312130107,-280.51123583679373,270.6994838792321
1053162,-277.8992012956522,-281.19895659876414,271.2234737338248
1053163,-278.4253271506554,-280.78416441207116,271.0846919965904
1053164,-279.3988940513449,-281.24298653021657,271.3153040375107
1053165,-279.4795337801292,-281.2082637216645,270.3766543261798
1053166,-279.3344225427905,-280.4590387417825,270.3673248172114
1053167,-278.60525033375444,-280.6426963882321,270.16340430111194
1053168,-279.1731800708219,-280.77057979951985,271.0644564116214
1053169,-279.37107520143866,-281.41080284285096,270.78764370886495
1053170,-278.5764832541424,-281.1382489014727,270.6744136918228
1053171,-277.9264084845373,-281.30828114279586,270.84723287690264
1053172,-277.17390118461196,-280.99064101072076,270.4630246834105
1053173,-277.92166479150745,-280.56310343756377,270.29359758246994
1053174,-277.1744684054865,-280.8257561658511,270.1262812507261
1053175,-277.24360612429865,-280.58653609979007,270.23714659459364
1053176,-277.32091847083,-280.5476365577195,270.47241007498764
1053177,-276.58092514505563,-280.671885364285,270.5260646026095
1053178,-276.36890873885574,-280.35309234527193,271.19140369591116
1053179,-275.55440625706007,-281.00080363884314,270.80024942527575
1053180,-275.69347909629175,-281.5829204771788,270.4943234699586
1053181,-275.82057810172967,-281.43888579390017,269.80158443228925
1053182,-275.70900738783155,-281.1947672902435,270.08138514582396
1053183,-275.81199339788856,-281.82055171789375,268.71357001533795
1053184,-275.39150120942986,-281.79077843236325,268.7020458310668
1053185,-275.1776941878418,-281.6534378251401,269.16347061934647
1053186,-275.279736033964,-281.3647473170798,268.9770862676449
1053187,-275.09412523803013,-282.03229420121585,268.3830357146555
1053188,-275.06114499055775,-282.0459052901806,268.6932827945598
1053189,-275.0106074283541,-282.4499083857163,269.0463538431761
1053190,-274.55640983388304,-282.97777144467227,269.95016152076306
1053191,-274.2602145750981,-282.8620070803307,269.879430056173
1053192,-274.05373896720056,-282.55419703114086,270.43722224817594
1053193,-273.9457631230596,-282.3647373093308,269.68247672757394
1053194,-273.26421154781843,-282.8801428789546,269.94508624945445
1053195,-273.53210461919593,-283.7231968745038,270.3347240266914
1053196,-274.1411124839307,-283.71459877432045,271.1283843273047
1053197,-274.1365208194563,-284.1304963952583,270.5045753385958
1053198,-274.44544290049555,-283.4482624376149,270.6944704754047
1053199,-273.49019163979995,-283.86060813273747,271.4981662312484
1053200,-273.7958794726938,-284.32446561814527,270.9984343340791
1053201,-274.70009689492446,-284.1346018309136,271.3309055378395
1053202,-274.6614706069307,-284.265669591637,271.69102878128695
1053203,-274.91374488771874,-284.75099710114426,271.64605838034805
1053204,-274.52159183312267,-284.7852743752824,270.85581504082097
1053205,-274.6236147012846,-284.3850237561076,270.74437065286537
1053206,-274.782846273225,-284.64422916467385,271.00390470621727
1053207,-274.0347339377071,-284.012927794174,271.4545506123903
1053208,-273.4999112459144,-284.2324991213525,271.5965881295587
1053209,-272.9794879722073,-284.835067535935,271.2354637208825
1053210,-273.00437429903934,-285.60312289241205,270.2373783218151
1053211,-274.0457070549051,-286.2387879312619,270.3208791107346
1053212,-274.24383299707245,-286.29978070500255,270.4344119037773
1053213,-274.39234992179945,-286.8892646339797,270.1420931395811
1053214,-274.3092107694004,-286.5938099328635,269.280466485964
1053215,-273.95691698663825,-286.6603259329349,268.85098863588746
1053216,-273.1034574910417,-286.4187521806876,268.5320983692264
1053217,-272.9838644460425,-287.10536239203907,267.9347820482207
1053218,-273.3690122303439,-287.45452364453195,268.7190942267616
1053219,-273.18246229073173,-288.01797854170445,268.14463002094357
1053220,-273.25294688898947,-288.385117146735,269.4109591849048
1053221,-273.4475411113434,-288.540166268855,268.0999468441825
1053222,-273.535207043903,-287.90254509059946,268.1350727995656
1053223,-273.4095442549899,-287.90505102686603,268.4348938934902
1053224,-273.744576382531,-287.2655717971075,267.69714689271325
1053225,-274.5492303246813,-288.0890092576969,268.0341531703344
1053226,-274.4290143859293,-287.67036861726126,267.63292438192906
1053227,-273.24526134385974,-286.50539853595615,267.80230421604733
1053228,-274.14655005560127,-286.2194576409488,267.3839773335617
1053229,-274.56925711613263,-286.1240945939349,266.5230208037262
1053230,-275.1970870212634,-286.3602218780398,266.99808716070095
1053231,-275.90862127089036,-286.78355019431166,267.3300748940276
1053232,-275.8656246875847,-286.606260082119,266.97589929531034
1053233,-275.7070712032445,-286.2495933318077,267.5838882263906
1053234,-274.88623944038113,-284.93861214813376,267.06775878930574
1053235,-274.3007624245584,-285.24788864642335,267.07176903681125
1053236,-274.6024715879488,-286.0398368181244,267.064079963819
1053237,-275.36826790339796,-286.5678348478875,267.10880700787453
1053238,-276.5332675591461,-286.4314971550319,266.8754386064703
1053239,-277.22451794232495,-287.0164292319962,267.09934139250316
1053240,-277.1406474962179,-287.4987555612114,267.9013585781162
1053241,-277.8579917105213,-287.67425188640254,268.36732524230996
1053242,-277.96729625702886,-286.72753891023456,268.4811158448295
1053243,-277.61721357731767,-286.8325169635572,267.78147664204147
1053244,-277.5331294111665,-286.8019575957045,268.31791906163346
1053245,-277.0287612232018,-286.9989625284796,267.89785218284226
1053246,-277.5031057009963,-286.9996234079588,267.31736181188194
1053247,-277.48456867465705,-287.08053096517244,267.6462456798035
1053248,-278.09642138226906,-286.8709146291728,267.31876360618367
1053249,-277.1195502215185,-287.03523851639414,267.8058227021451
1053250,-276.4096558674033,-288.03014800962393,267.4127715186935
1053251,-276.4221170127355,-287.50981076355043,267.8771970663552
1053252,-277.2191562353894,-287.6612793134631,267.35401977396344
1053253,-277.80467185661337,-288.19233718625344,267.5690007502995
1053254,-277.75173121375906,-287.7516068798461,267.28544925813594
1053255,-278.21022747816403,-288.20194938532785,266.97979222784267
1053256,-277.89597573638133,-288.4745267451004,267.7502383790936
1053257,-277.2182732527096,-288.17314753553546,268.01899208187905
1053258,-276.7538989473159,-287.7601177373266,267.6553724872006
1053259,-275.7712851155176,-288.185325288641,268.0218532144555
1053260,-275.6821058921614,-288.87528035353034,267.76779914116554
1053261,-275.53421214177837,-288.3378373919807,267.0010084271352
1053262,-274.89458128140234,-287.96089580087585,267.11253840478986
1053263,-274.2180355721946,-288.7088566936898,267.9238483478316
1053264,-274.11624448342855,-288.9046405855078,268.5039760714382
1053265,-274.5614976029813,-289.4136262093609,269.21939455902304
1053266,-274.3102404283732,-289.28487573622493,269.17240906787833
1053267,-273.5356337604996,-289.12565618466033,269.32637800536827
1053268,-273.0263982800338,-289.1678593894721,269.1793716574221
1053269,-272.114492816967,-290.30807599058204,269.52679757951535
1053270,-271.24947221970393,-290.1196653329064,269.19898361694646
1053271,-271.1427216526927,-290.78621791715926,269.9903753430397
1053272,-269.79539316630024,-290.9520765112459,269.7038995949134
1053273,-268.971732139923,-290.88688404272796,269.7135006955636
1053274,-270.08707691460836,-291.72532345618043,269.8210245623696
1053275,-270.8773770229586,-292.99376806006507,269.535552883664
1053276,-270.91412898574794,-293.8473485741058,269.6940617840748
1053277,-271.2209278875438,-293.683212004069,269.33711879820254
1053278,-271.45958793266334,-293.68772371937956,269.4858633313439
1053279,-272.21176589901603,-293.703690878483,270.6683793319512
1053280,-272.6521078066004,-294.3878546686686,271.0379955836095
1053281,-272.4965890480869,-295.2430510239648,270.3780964567745
1053282,-272.12796292295116,-294.8527256508407,270.29011260360124
1053283,-271.98907239846096,-295.7203176301462,270.8573766133462
1053284,-272.7790740828422,-295.93366699113864,271.29705627994946
1053285,-272.70525961676265,-296.1960310103986,271.3418494348915
1053286,-272.93776902731366,-296.6137451231825,272.3847322879647
1053287,-274.2990714589473,-297.0014128351674,272.3779594300559
1053288,-274.02790819998427,-296.1587629877482,271.19074667018384
1053289,-273.85374743373114,-296.2334074629266,270.15340019075234
1053290,-273.49955212889586,-296.112372453562,269.93292174053516
1053291,-273.71542041785057,-296.4393120061822,270.481628451631
1053292,-274.2137643268729,-296.47201141522066,270.7600921944335
1053293,-274.0531328612946,-296.23403437320155,271.4059071822179
1053294,-274.02438334108376,-296.2024111899866,271.37212121896584
1053295,-274.2972485652808,-296.00806943205833,272.36961412713396
1053296,-274.33825020784934,-296.2063924685489,272.5285717514831
1053297,-273.2984190452732,-296.264695465319,272.4057605116039
1053298,-272.64065712768746,-296.71158263005066,271.50814761174183
1053299,-272.4618671062284,-296.62136426568696,271.3251494951485
1053300,-272.7853412631853,-296.5331790073501,270.42420058855464
1053301,-273.46347513109896,-295.67713962749656,269.76298869037055
1053302,-273.0024218213179,-295.0376417744178,269.0655890545246
1053303,-274.02874130078357,-294.56705443163816,270.2495623230147
1053304,-273.30786743523447,-294.65523681997524,270.25954494448524
1053305,-272.98009758068685,-294.25152774541067,269.5262903101849
1053306,-273.12665783228863,-293.5558513121847,269.6282130041674
1053307,-272.96190930357136,-293.7667064407698,269.9939955688578
1053308,-272.44178010438077,-294.40513428253263,269.7615985179282
1053309,-272.73875984596674,-294.27395078965543,269.1809657092003
1053310,-272.8624214685721,-294.7507738016798,269.4296111622531
1053311,-273.1231207132073,-294.91912239218726,269.2282171044354
1053312,-273.48073869319677,-295.505089695943,269.04772794446956
1053313,-272.7722923038504,-294.7526974545132,269.4551452177795
1053314,-272.6702733842235,-294.6968981519806,268.774606818773
1053315,-272.4122771576461,-294.0576787309285,268.7353014973054
1053316,-273.19743366770433,-294.0162311129474,268.71615674654015
1053317,-273.91686005049974,-293.9616759470292,269.3063808194154
1053318,-273.5473272154473,-294.08783271899574,269.8844530590658
1053319,-273.6022907929634,-293.71516346621127,269.2475883776991
1053320,-273.33615978702346,-293.6081521077919,269.2933793523764
1053321,-272.4995556171979,-293.25017898115885,268.86238588047394
1053322,-272.81615537518684,-293.24808026119484,269.45130033157284
1053323,-272.9133583340163,-293.13663591557787,270.28736085509007
1053324,-272.4141864464626,-293.5239537561352,270.53731136614823
1053325,-272.03835878123937,-292.6748270354017,270.11459780761606
1053326,-272.9205067877278,-292.199017492049,270.41394976273006
1053327,-273.1874005047609,-292.0597013578362,271.09875666416355
1053328,-273.30768471499346,-292.38228333419937,270.5180103689202
1053329,-273.2187568025604,-293.185869506319,270.7890404392928
1053330,-273.28875380913723,-293.0910766286882,271.42279240322324
1053331,-272.64277201837507,-293.08704320319384,270.38726206730917
1053332,-273.4916372465427,-293.0553786601814,270.60369059995764
1053333,-272.91671685876,-292.3187808829393,270.7487866500498
1053334,-272.4535119796373,-292.6858627639287,271.2053272514815
1053335,-271.7656750604606,-292.5757199702515,271.1203019128191
1053336,-271.629006767185,-292.9759498674645,270.7365884295904
1053337,-271.485951275883,-293.3858600718841,271.36784862531476
1053338,-271.2768506694655,-293.9751638795899,271.1129359163998
1053339,-271.1180707824937,-293.81440879393944,270.4565764142923
1053340,-271.2225223932632,-293.7380446914414,269.7206402581258
1053341,-270.55690957431364,-293.1849448162565,269.4226468907738
1053342,-271.9066832523935,-293.06571364132895,269.6563389029178
1053343,-272.2925098125513,-292.85712693243715,269.83065643079107
1053344,-272.83517410396786,-292.48192393127476,269.5449872674176
1053345,-272.9021258486965,-292.8058192066558,269.3706853294018
1053346,-272.1548961188239,-293.0156026701654,269.134350372802
1053347,-271.9439278112344,-293.29257463560594,269.8362720912409
1053348,-271.4576794740256,-293.3150808888679,270.18437827274687
1053349,-271.7953850559099,-292.22922048516784,270.2532236667052
1053350,-270.95754185438585,-292.5847324200735,270.71913257192017
1053351,-271.1980419418219,-292.8492806745051,269.79266456528836
1053352,-270.9157914931538,-292.09879173196816,269.80921756861613
1053353,-270.04615334854907,-291.7567619731526,269.4991423743653
1053354,-270.8758965831363,-291.1798584799963,270.7013944710785
1053355,-270.7523246179878,-291.0054273065447,270.85021149111026
1053356,-271.299713040608,-290.9448544190858,271.77320706648027
1053357,-271.6661938914517,-291.1217647679469,271.11312935224913
1053358,-271.99018570164566,-291.66029092670544,271.8380229262713
1053359,-271.46209848335883,-291.5669851515616,271.6728745176962
1053360,-271.0979632193921,-291.4291803250293,271.2583343975794
1053361,-271.0921843988527,-292.02392897703106,270.3515585516942
1053362,-270.95300442970563,-292.0439314457554,270.9229952381848
1053363,-270.55281173043926,-292.08390729936855,271.89105937304384
1053364,-270.82359216512236,-291.7246235906444,271.99667183941636
1053365,-271.0160224846681,-292.34383557032015,272.7924835371145
1053366,-271.28115037665896,-292.39395620178266,272.74291066010375
1053367,-271.88445284048703,-292.91159362710164,272.592623196463
1053368,-271.59254285875016,-292.08235455934454,272.89213050352845
1053369,-271.9893333449984,-291.8766965248566,273.64727131351134
1053370,-271.37620630824904,-291.8044471718633,273.22606033238094
1053371,-270.78017568609107,-292.02887372551146,273.2150992540976
1053372,-270.4044705848854,-291.7107124019906,272.825975896819
1053373,-270.08698259797956,-291.5371892934473,272.5525188048843
1053374,-270.4766479815397,-291.24056452650535,273.6869030693302
1053375,-270.49333119103983,-290.5005354755709,274.18466460724454
1053376,-270.11223766378384,-290.87631959773256,274.0329379800954
1053377,-271.3764386783396,-290.93954356779415,273.99854876865516
1053378,-271.36495111130233,-291.19898573659276,273.78428571210935
1053379,-270.83737268242794,-290.71935578159383,273.229696968958
1053380,-270.4719448491297,-290.59792459052113,273.72837446021657
1053381,-270.9387905447678,-290.3563167761663,274.34809717245673
1053382,-271.2084527636661,-291.0899444314242,273.6893633674492
1053383,-271.51999823862604,-291.1099000839507,273.75006899310404
1053384,-271.6439902568834,-291.1641642284213,272.9565503106234
1053385,-272.0436989893099,-291.4282922896516,272.8569207735736
1053386,-272.67962483681777,-291.3900091678814,271.94430583234015
1053387,-272.1705953076838,-292.3229131691383,273.23360357683816
1053388,-272.25698714905565,-292.1545307770463,272.7033374008198
1053389,-271.78664064753144,-291.9875813806355,272.4503991480787
1053390,-271.9823039063134,-292.4480051136522,272.9944183108118
1053391,-272.20257315482587,-292.0804120995695,273.67889757805443
1053392,-272.31324760830177,-291.9280907183204,273.38357689691605
1053393,-272.4474331290596,-291.3508753716102,273.4274910692264
1053394,-272.40953789658283,-292.0391300231485,273.3921759418614
1053395,-271.2360354812511,-292.44546508930773,273.03102613571565
1053396,-271.305552110059,-292.4431379194157,272.35497056132226
1053397,-271.4791732593092,-292.5868851451705,272.13317971558604
1053398,-272.422315757146,-293.4468374411263,271.98771640654155
1053399,-272.55389723819786,-291.94449132049533,271.6584677612592
1053400,-272.8869251543721,-292.2407410498404,271.81223909314116
1053401,-272.6316983478475,-291.32110861323287,271.2477616225878
1053402,-272.5919546877167,-291.54681692133045,271.33755687211726
1053403,-273.27824589939354,-291.425636040963,270.7883503697918
1053404,-273.79833358318155,-291.1792122111049,270.7884790259165
1053405,-273.88913631962436,-291.3090929785204,270.02058860981015
1053406,-273.97161394269546,-291.4080529315937,269.99891828556645
1053407,-274.36830672409206,-291.21007908483693,269.7157036923827
1053408,-273.3882623728203,-291.03789195048574,270.2668442980645
1053409,-272.8675617615136,-290.19264489127886,269.4536910622648
1053410,-273.25372541445205,-288.9022826518761,269.25800933101357
1053411,-274.3670427043621,-288.598887264759,269.9983659030644
1053412,-273.8819424810612,-288.0795328078673,269.91968434603837
1053413,-273.537035358644,-289.41520949079234,270.20273238182386
1053414,-274.718122242433,-289.017515660205,271.2333496739584
1053415,-274.15885105635385,-288.7877635599936,270.76059355354477
1053416,-273.3824752967345,-288.63705112389334,270.58993400738615
1053417,-273.01912225099045,-288.0379484417796,270.8027640224094
1053418,-273.7269421174902,-288.7510229724044,271.27774333215734
1053419,-274.38093886942266,-289.5054255150649,270.959781484899
1053420,-275.3366480448296,-288.8767164211816,270.9942067554646
1053421,-274.85405085827904,-288.84170077267487,270.6764085619099
1053422,-274.60434972605736,-289.76706518998475,270.26706916287753
1053423,-274.8295097694405,-289.92603617182937,270.0971728127922
1053424,-274.9493488608909,-289.8677229164172,269.6400517987328
1053425,-274.99497043629583,-289.57027856105935,269.5423981150656
1053426,-274.726772581779,-290.1451632804812,269.11328599272866
1053427,-274.36498752559856,-290.7869772451471,269.4693582172615
1053428,-273.97681551026125,-291.7534114065028,269.773303710231
1053429,-274.17438646662043,-292.49787968731135,269.99455413526414
1053430,-273.9396724308108,-292.1667338837453,270.080915981261
1053431,-274.3483594544592,-291.77525393635517,269.54939185999274
1053432,-274.4176530621587,-291.29908719038866,269.93310411828344
1053433,-274.1226496465766,-291.06201931353826,269.78036860713615
1053434,-272.8975846819945,-291.2946752198701,269.40602138432587
1053435,-272.57797678411316,-291.0172105823677,270.07958371107713
1053436,-272.4968199650142,-289.98743539399413,270.30203269879513
1053437,-272.2699614592386,-288.99809238620827,270.1584293722657
1053438,-271.6312686616889,-289.6208317966314,269.5254495225638
1053439,-270.69769224779265,-290.24946732619503,269.64772053859537
1053440,-270.7544328691741,-290.35213572157073,269.31446521210853
1053441,-270.79665509109975,-289.9624441142293,269.1061070786796
1053442,-270.1633166152537,-289.6081545378802,269.62487970513394
1053443,-269.9505000931429,-290.59476935054477,269.56899786179434
1053444,-270.3545141370191,-290.99143721892386,269.3467232906543
1053445,-269.9604598817065,-291.0779878168413,268.7855621793874
1053446,-269.5916337343114,-290.91713728789944,268.9116550081078
1053447,-269.94099789748594,-291.1345818402974,269.0530324583423
1053448,-269.5749920669306,-291.3805855534638,268.4242298646052
1053449,-270.1170597075659,-291.3810805132866,268.3561377304632
1053450,-270.0884103622732,-291.2245433038314,268.304830892799
1053451,-270.5950746653626,-291.31493866533964,269.09578821225375
1053452,-271.03264080838954,-291.5527468402798,269.182847482019
1053453,-270.65560685550184,-290.80986280460365,269.3553692714519
1053454,-269.5446030370357,-291.2123746906966,268.33391593527847
1053455,-270.8739430718147,-291.8308344931148,268.07658112879255
1053456,-270.6877430150997,-291.3742870982964,267.9359607443415
1053457,-271.80712899949435,-291.4729586138889,268.59500390490933
1053458,-271.0589948090119,-291.5562214151254,268.9515658186526
1053459,-271.7703855959958,-291.8185826763052,268.77257715920285
1053460,-272.0400561729777,-292.0044076738596,269.461533167946
1053461,-271.9039177389491,-291.3772122456008,268.3906456670322
1053462,-271.20139803821235,-291.7885838227802,268.38814435251254
1053463,-270.6662872023298,-291.81140343585236,267.703058518147
1053464,-271.4250825633176,-291.9319106339835,267.88958325399875
1053465,-271.28910343836515,-292.16723778444214,268.3566170366788
1053466,-271.15891806824885,-291.9029258792281,269.4386919445071
1053467,-271.31237262189586,-292.0454328149249,269.43536074628184
1053468,-271.48994832458374,-292.4877799276801,270.0971721762327
1053469,-272.3144263855933,-292.7404933483673,270.7330294085645
1053470,-272.96268023839957,-292.3080710825936,270.66891647746974
1053471,-272.77562927880786,-292.6217513345477,270.87087790214474
1053472,-272.355947871454,-293.39116186532186,270.61156565251264
1053473,-271.97570970182795,-293.7476745460775,269.52720614600355
1053474,-272.35412624787176,-293.87656942365766,269.95118839287517
1053475,-271.91401885587123,-293.8973157910495,269.20139576367154
1053476,-271.6626032986825,-294.0819656067521,269.0140831945361
1053477,-271.7117220662036,-293.7457516588261,269.0781571196295
1053478,-272.69631627821434,-293.22404616214664,268.99816414402255
1053479,-272.13642633564376,-294.2797592441604,269.15238234302575
1053480,-272.6422307581048,-293.1424236188045,269.7552178847759
1053481,-272.93629085121216,-293.277669931043,270.4158758720597
1053482,-273.88806187642774,-292.91661458045706,270.0684375388527
1053483,-273.9159402773487,-292.7122701624041,270.0898662095689
1053484,-273.645963478802,-292.4261852063762,270.7361638393232
1053485,-273.9795908130152,-292.5842196395798,269.99719665506854
1053486,-274.30835687698567,-292.09056879511917,270.64600631994176
1053487,-273.4353201646975,-292.042902666667,270.2175294528255
1053488,-273.16792193025253,-292.41893535952187,270.0900978932857
1053489,-273.5717711579175,-292.6112439999073,270.6064208687451
1053490,-273.74069433067035,-292.21009696489523,270.25710446195814
1053491,-273.5562198246348,-292.94222537989606,270.4731806961097
1053492,-272.70888394490794,-292.1987873140995,271.14104113281553
1053493,-272.1639404343261,-292.3029815031258,271.6006709455094
1053494,-272.32699870442497,-291.7644169827485,270.9803358735501
1053495,-272.6808875723669,-291.0838525968796,270.7372690808181
1053496,-272.7180652912506,-290.61502199554565,270.542601660516
1053497,-272.3126251185023,-291.6159540733421,269.9029199126351
1053498,-272.16455380341694,-291.26426643466164,268.7027505049734
1053499,-271.93917401741595,-291.24646879398244,268.9161121289239
