sample,gyro_x,gyro_y,gyro_z
1071000,-290.597827273487,-287.7390937890098,209.87538984127835
1071001,-289.67222747457964,-287.84225543245054,210.21975108508087
1071002,-289.2161420845845,-288.427599434376,210.97011061291218
1071003,-290.0102943650251,-288.2444100140143,210.7115206230673
1071004,-289.5250605947159,-288.83000220344263,211.15256990464113
1071005,-289.1232578640912,-288.5964930163597,210.84630359473564
1071006,-288.7480914874227,-288.27214170450054,210.63004429417092
1071007,-288.18109471514646,-288.0997247783123,210.69548398236972
1071008,-288.1890681621296,-288.8474025375666,210.37196244590612
1071009,-288.5308089352393,-288.78248478018463,210.76529651065997
1071010,-288.9776716122001,-288.85303472837705,211.27713382519343
1071011,-288.08208969154333,-288.26339647342013,210.7202774537169
1071012,-287.4369129779414,-288.72407190111284,210.91431749331204
1071013,-287.129856450077,-288.60812419443954,211.1251942284713
1071014,-287.344828357169,-287.9858974824846,210.98870914990027
1071015,-286.9229248292206,-286.77173967169614,211.56829826369557
1071016,-287.264451588041,-286.74195853228355,211.94088135880384
1071017,-286.63187024419494,-286.8586776934465,211.7270308909516
1071018,-285.92002831336134,-286.9768035463947,212.27159629909568
1071019,-286.31733520589296,-288.016970066834,211.26616979042734
1071020,-286.3963842859393,-288.41098758032484,211.66110744373054
1071021,-286.7951049867063,-287.654117136829,210.6491887294235
1071022,-287.16490869028536,-287.2574020377686,211.75567099794554
1071023,-287.5811102268587,-286.8859158335046,211.59830093494404
1071024,-286.48191796903546,-287.92456854676595,211.88207250781096
1071025,-286.7715168703973,-287.4205208720794,211.55827622163628
1071026,-286.1907375813248,-287.32089417871754,211.0775120779071
1071027,-286.54592634427564,-286.51305783916007,211.08357588116505
1071028,-286.1810694848214,-285.8015426152355,210.5703368538601
1071029,-285.68712144337525,-285.0952257785101,211.35290308423203
1071030,-285.6060206812296,-284.92332968664005,212.21117596108175
1071031,-286.55002013341294,-284.59530566547903,211.93566386346694
1071032,-286.358281511758,-284.62047971040727,211.88449176148413
1071033,-286.5939360136551,-285.50088857284175,211.4054234007114
1071034,-286.46013521649724,-284.82688407771076,211.2249946848338
1071035,-286.59574503762656,-285.19558757757466,211.47029339849286
1071036,-287.87407907309523,-285.42556079011877,211.1961992346182
1071037,-288.1707849991515,-285.8817563699376,210.8932827107909
1071038,-287.5924625514367,-286.4526529904479,210.9021141934373
1071039,-286.93129264022264,-287.0162144818512,210.99986695985308
1071040,-287.4540806048215,-286.3230281083975,209.93545261429267
1071041,-287.1943118222285,-287.0616503557711,209.34285608969105
1071042,-287.02643045365045,-286.93276428168105,209.12539263555405
1071043,-287.26485105433176,-286.3618068643896,208.75840553510398
1071044,-287.0666508806309,-286.2399238784426,208.64888149009323
1071045,-287.2931003785104,-286.49073363545835,208.1984230448266
1071046,-286.5938558221815,-286.92374889423627,208.917513493628
1071047,-286.568543821019,-286.04646658298526,208.6898806286415
1071048,-286.813111867086,-285.9897330088379,208.87656399858082
1071049,-285.9349953942128,-285.91534154715316,208.95978670935634
1071050,-286.7126145988662,-285.74012636664156,208.4884350912131
1071051,-285.94107396241526,-285.2970854949358,208.42796853517456
1071052,-285.47192968439055,-285.2640168469899,208.15185650704038
1071053,-284.99501569309217,-285.67741113106877,208.11488506914742
1071054,-284.91158671369357,-286.0676666909196,208.72689279140678
1071055,-284.7433365309656,-286.4183133352859,209.40723937050913
1071056,-284.3238251587967,-287.2335118562451,209.21010376528605
1071057,-284.4472542795364,-287.53754047854784,209.38170711612378
1071058,-283.93415134980563,-287.82544842537425,209.57719552342175
1071059,-284.512694137307,-289.24101748840866,209.6037694269605
1071060,-284.13328437305853,-289.401584835125,210.148442776346
1071061,-284.0219938095673,-289.8031444837502,210.949710223082
1071062,-284.03954244386716,-289.83205668307534,211.38562830624255
1071063,-284.0208634076153,-290.02602883039117,210.8574692425931
1071064,-284.0054607186387,-289.76252745489,211.61116341435934
1071065,-284.45296457246366,-289.9437582621748,211.67202385971905
1071066,-285.04156265486597,-289.4289060833548,212.34464245257004
1071067,-285.3958061720712,-289.6657459006224,212.80913735736664
1071068,-285.26291048480795,-290.1158907348894,212.157156454884
1071069,-284.13229639937396,-289.95548529323366,211.120680410212
1071070,-284.914307726862,-290.73779858053814,210.5975043296708
1071071,-285.67907445270544,-291.0148072995991,212.4131049399647
1071072,-285.6540327683535,-292.21197616764834,212.08146876648394
1071073,-285.91436342242827,-292.1214119858629,211.77847349559664
1071074,-286.25925655025105,-292.87262365953427,211.71084592674598
1071075,-285.5528500517259,-293.4766682430535,211.58136566709643
1071076,-285.1750698215958,-292.80679162024796,211.18720971097468
1071077,-284.3240277547154,-293.02127670540955,210.92744686652682
1071078,-283.97611407897733,-293.45677971287574,211.77744516891966
1071079,-283.21730843724436,-293.7560863195935,211.08931479562798
1071080,-282.75173789332155,-294.0594409679142,212.06279987183245
1071081,-282.8861921948418,-294.0839368784774,212.3588127841508
1071082,-282.7220686131307,-294.17768535207085,212.39135676550669
1071083,-283.09953287895587,-294.16529676766453,211.73765532132975
1071084,-283.5953760719219,-294.7016507895092,211.97833759706563
1071085,-283.69430872437056,-294.81738531928437,211.21950698978313
1071086,-284.3986634373565,-295.3918429368824,212.020274139236
1071087,-284.14806271662167,-295.92932490687497,212.63160836586147
1071088,-284.5864393316431,-296.66768784216316,211.74922115804318
1071089,-284.5407061751266,-297.1833678154163,212.0590509294733
1071090,-283.6653421799906,-296.43516671533035,212.22687024862765
1071091,-283.1502555473737,-296.3327069652102,213.11592033748704
1071092,-282.6718435842003,-295.7790036368054,212.7304125415414
1071093,-283.3392051417899,-295.29517383866147,213.15043788731543
1071094,-283.8307129633536,-294.5554541812761,213.0325634328077
1071095,-283.9656828635624,-294.5317912660281,212.90524972536275
1071096,-283.61839066102874,-294.759923249177,213.09492978285815
1071097,-284.0279994671143,-294.47485109792365,212.9709450988963
1071098,-284.4361413405268,-294.265955769051,212.73427504465013
1071099,-283.7683058014789,-293.8081841230956,212.40873024637528
1071100,-283.61803157667134,-293.438830055807,212.19867542616242
1071101,-283.84466941860416,-293.77914803338115,211.54276073085092
1071102,-283.826095838915,-293.6483014611861,211.69584979079858
1071103,-284.2136365539859,-293.89337579481924,212.11516482806317
1071104,-285.17919765282096,-293.3137841363609,211.9056698501762
1071105,-284.60500448220205,-292.9899875373168,211.93765672508948
1071106,-285.4257827605009,-292.7636881056098,212.00477525707794
1071107,-285.9303770291039,-292.93199610274394,212.49394722746763
1071108,-286.5324901164285,-292.32247964780885,212.10206823081012
1071109,-287.12088549002436,-291.9293735215362,212.01208748005428
1071110,-287.4252994082555,-292.5661136884214,211.75265590194738
1071111,-286.7482933315425,-291.6070752873325,211.4250849443021
1071112,-287.2910043573026,-291.17561791654265,211.80573289360908
1071113,-287.9518706441607,-291.3044788523614,211.74591144447314
1071114,-287.6864828365489,-291.5006058637243,211.57603897196847
1071115,-287.77174186968983,-290.93813763644664,211.94248569894418
1071116,-287.9317517516807,-290.3521465292472,212.34510584168274
1071117,-287.75669175112074,-290.2698933487846,212.16753228454186
1071118,-287.63568396574624,-290.2788077019748,213.0323233384657
1071119,-287.9147806503682,-289.91393721198546,212.6631093593683
1071120,-287.9304897247065,-289.8126826263833,213.33404754329072
1071121,-287.3870329937424,-290.0683906684999,213.70773841443315
1071122,-287.8733128236079,-289.8397790682744,213.625652499658
1071123,-287.85263297671474,-290.14215815946176,213.65522687165418
1071124,-287.84952641198953,-290.35602728057086,213.48259376299146
1071125,-287.9953652862358,-290.2296525692539,213.25511043593102
1071126,-288.7497482983427,-289.92959018606797,213.3144901907915
1071127,-288.4990653450954,-290.3419620725298,212.24053308897956
1071128,-287.6896533528471,-290.53818580883916,212.49162475856008
1071129,-286.915224532803,-290.1126238151047,212.3855170836842
1071130,-286.91106328578667,-289.1428797082501,212.44013145084267
1071131,-286.65589775658157,-289.65364154568175,211.6347952611016
1071132,-286.3918842235632,-289.5454180362254,211.73181380673677
1071133,-286.24318605687284,-290.0184244116245,211.71537733905953
1071134,-286.18013730498046,-290.1819804889904,211.5445612316364
1071135,-287.22940082628213,-290.3081244899745,211.35148107078516
1071136,-288.2668833995875,-290.1601858307823,211.52568732206842
1071137,-287.74530027976516,-290.27804239330726,211.07089190523996
1071138,-287.95300862332164,-290.3869986363291,211.72246860487013
1071139,-288.05369709393136,-290.8981187741348,211.94212460824428
1071140,-286.516363022069,-291.43650975108534,211.39017517472763
1071141,-286.7858314577528,-290.78078059014024,211.23176463682705
1071142,-286.878563729005,-290.5461272741669,211.92994662157292
1071143,-287.30711038148473,-290.8323967798846,211.92434371646075
1071144,-287.2652976218474,-290.99951313837727,211.8679903937316
1071145,-287.4575445478107,-290.983460439727,212.02475998851597
1071146,-287.64090986206566,-290.4077628346639,212.41773471987716
1071147,-287.1852680235431,-290.8897070528888,212.2076082231055
1071148,-287.1756546865677,-289.6935829874571,212.37743622262366
1071149,-287.2075806666746,-289.23681171088026,212.19029508218705
1071150,-287.5600481012297,-289.7526844973016,212.2333520375879
1071151,-287.88091816544033,-289.4135380373651,212.28760603296473
1071152,-288.18994847718125,-289.2298358675999,212.02587280083273
1071153,-288.2700150611614,-288.9757670529896,211.46966491092675
1071154,-288.06453890911786,-288.8909932356969,211.94007302633477
1071155,-287.59687296906594,-289.2154506256815,211.71850343920465
1071156,-287.8697665142513,-288.8970717072302,211.9226624183631
1071157,-288.1658133581738,-289.7026770711858,212.1841328164259
1071158,-288.4636911113154,-289.52578585917723,212.01818883961255
1071159,-288.06570931745887,-289.0949437746665,212.7807138791168
1071160,-287.8940693991193,-289.3144391700085,213.32997792179927
1071161,-287.0982019739513,-290.6578968140278,213.3693154423572
1071162,-286.37141526999324,-290.6283461706237,213.35874842370302
1071163,-286.89628700091316,-290.04891300722807,213.96523019862684
1071164,-287.00889101933245,-290.34181162799916,214.15390543900983
1071165,-287.9413725494236,-289.81528154679614,213.23143395840373
1071166,-288.40878744861664,-289.95501596181566,212.97839059380945
1071167,-288.79754195248984,-289.5983361681855,211.67037946301966
1071168,-288.21308700681004,-289.78007164808247,211.5151017309238
1071169,-288.3826656191141,-290.03368898293024,211.4287339626533
1071170,-288.27067010488844,-289.84463766952535,211.22355794267943
1071171,-287.6276942997302,-290.87100883410227,210.19924795616146
1071172,-287.4087091999565,-290.15978055496504,210.30291290238512
1071173,-287.4977323164742,-290.10943465811783,210.2608016860361
1071174,-287.4152578963125,-291.1313348278813,210.1840106809274
1071175,-287.24266254170124,-291.20123160384355,210.38643366195473
1071176,-286.8373944247814,-291.7663851528148,210.0942781027853
1071177,-287.36806621511664,-291.45243340267854,210.03164648101014
1071178,-287.2600608959626,-291.62871358112466,210.27837503226954
1071179,-287.6570264419945,-291.74114550290227,210.6723620597153
1071180,-287.86637651231223,-291.3483353510285,210.4909510647163
1071181,-287.9828094442309,-291.32005503327116,210.8562807045619
1071182,-288.4192153296899,-291.70386219286445,211.80388643364003
1071183,-287.8215304969182,-291.3259033494312,212.83326184625548
1071184,-288.37082327638,-291.8602840067734,213.42197326253054
1071185,-288.1278135494518,-291.9997529587521,213.3844313047238
1071186,-287.842653829545,-292.1387570569901,213.29520139605586
1071187,-288.02496121658294,-292.46097084800016,212.97311488644067
1071188,-288.0057479417286,-292.24730446675164,212.86593167226093
1071189,-288.3531237683275,-292.46963875650454,211.95844331108626
1071190,-288.07458672380494,-292.5277386199043,211.38078450833214
1071191,-287.8277509054052,-292.8569372301588,210.10840155459266
1071192,-288.53464810290853,-292.75786016904226,209.92821514739924
1071193,-288.36725320540927,-292.8016596934285,210.8446157551133
1071194,-288.38498421475646,-293.56170054292363,211.06770250676288
1071195,-288.7659523102867,-294.42618462947803,210.50624035701483
1071196,-289.7516252934307,-293.5259127496009,210.10213209266638
1071197,-290.27862457413795,-293.21073909083407,210.04053036113916
1071198,-290.06344879912433,-293.14747345445284,209.71019818473687
1071199,-290.56767565052195,-293.41463811454463,209.7299974418833
1071200,-290.7441372232733,-293.10722125301777,210.33913768026764
1071201,-290.9291799190718,-292.97048397693817,210.63797182817075
1071202,-290.9503934522856,-292.4460922118239,210.3261475951763
1071203,-291.11679650362305,-292.46044185264014,211.04633511263435
1071204,-289.9816928402629,-292.66450772192735,211.3162863203801
1071205,-290.4627891771944,-293.1961180025386,211.24263327640455
1071206,-290.6894404399681,-293.54450507321883,211.79626943717196
1071207,-289.74584196581327,-293.46853783665597,211.27541269659952
1071208,-289.51654312506827,-294.01722085571606,211.39085064089878
1071209,-289.73863802407203,-293.70615681179237,211.78931486490944
1071210,-289.4765580547009,-293.50058540549134,211.1651766121162
1071211,-289.74194497761545,-292.7111556518749,211.11654224665193
1071212,-291.15321368425697,-292.6360087582544,210.94379842524154
1071213,-291.8212695448127,-292.0501125185395,210.96765599862732
1071214,-291.7293860548005,-292.00114688488986,211.52052752161157
1071215,-291.4827065562813,-292.3312405706068,211.03227772996178
1071216,-290.5864375934446,-292.74566724317134,210.7487029706258
1071217,-289.82941458461056,-292.5851620521099,210.4756362773153
1071218,-289.1519069886647,-292.77935204930594,210.84324539322884
1071219,-289.4985318592445,-292.17160250187146,211.2925419438673
1071220,-288.9137207785494,-292.6214728535751,211.50132211600337
1071221,-289.06404132386007,-293.8397655843121,211.75883213496164
1071222,-288.51095940313127,-293.73864313649267,211.93983069974328
1071223,-288.5720279451542,-293.54857847055325,210.77822203745134
1071224,-288.7629321901476,-294.6777480207038,210.48077702001774
1071225,-288.4064718768946,-294.32827768445884,210.53225302903513
1071226,-289.11933072906197,-294.64060935824716,210.5554787477096
1071227,-288.4901400791522,-295.0840659755401,209.87333604321304
1071228,-288.45528639093453,-295.2139132147458,210.7698012808571
1071229,-288.4801764351086,-294.8937487403829,211.02690556784506
1071230,-288.27964549748947,-294.12326620347216,210.45313805671105
1071231,-288.01420093440913,-294.0856095572191,210.2257958454802
1071232,-287.9920030953946,-294.2254132338627,209.89367299535783
1071233,-288.3082825990583,-294.41510064970277,210.23595067765152
1071234,-287.5396441928667,-295.25751212719683,210.61471771440432
1071235,-287.2371599720168,-296.0384563074507,210.32364989318478
1071236,-286.95982156233276,-296.8921091866059,209.93473332077312
1071237,-287.2793125527291,-296.811238460899,210.24734631574358
1071238,-287.2836375999058,-295.9693140611475,210.57562963092616
1071239,-287.37298910085593,-295.7686206406688,210.87847315297995
1071240,-287.23550917330346,-295.92936861607,211.5462064916432
1071241,-288.0117258681364,-295.8386261239778,211.4031111623227
1071242,-287.5268120477888,-295.7561503862855,211.08020881721336
1071243,-287.8967744009901,-295.51362498569824,210.0332374880055
1071244,-286.85553174958,-295.06038037475776,210.0381992735035
1071245,-287.22033405285606,-294.75697138914643,210.40780859589051
1071246,-288.5966499500719,-294.2173720290591,210.72530002335498
1071247,-288.2283913350161,-293.8294824988144,210.97441218707544
1071248,-289.0518850296376,-292.92839234993454,210.72623850158544
1071249,-289.8792607010327,-292.184143427359,211.22665935750578
1071250,-289.4021819545919,-291.5319307986189,211.78713299796584
1071251,-289.233200580362,-291.73925378819274,210.90174043719128
1071252,-289.22435548844754,-292.7395532967635,210.8894583302145
1071253,-289.6260225656461,-292.2019722117971,210.82873644083637
1071254,-289.7454531590765,-292.01748938765024,211.42994587240617
1071255,-290.00760190549875,-292.60437147541177,211.9766113820232
1071256,-289.88467591407067,-293.3329447721547,211.99086008989866
1071257,-290.0060413669774,-292.91499919349,212.0047768485442
1071258,-289.0275300994165,-292.9419596558199,211.1651207810486
1071259,-288.9185352611263,-291.75748153970136,212.02234604091262
1071260,-289.0118823563422,-292.84726318834197,212.8656435756219
1071261,-289.2293724235406,-292.3677879992989,212.8172405946886
1071262,-290.3157827628518,-292.87192732973256,212.49834094320633
1071263,-290.5597822344885,-292.2896634021943,212.62292164480695
1071264,-290.10400194336347,-292.2008376093853,211.71750623247502
1071265,-290.2540220420971,-292.38886358942926,211.59907204013697
1071266,-290.23557632648965,-293.0070536897265,212.18027077560708
1071267,-290.9615633616791,-292.53890682734084,212.14298518467288
1071268,-291.1687171521602,-291.6759417025379,212.38560534880304
1071269,-291.3082927610995,-291.69983231102185,212.09382396912747
1071270,-291.7717766153605,-290.7630393013657,211.88811210036644
1071271,-292.24603403508615,-289.7348890648479,212.03078956818862
1071272,-292.3954075564669,-290.3163237799694,212.4761531597979
1071273,-292.51232955705234,-289.88088349833095,212.80095554590554
1071274,-293.10294436007086,-289.95907749825835,213.16164133791176
1071275,-292.8564978965367,-289.6219137835136,212.99814328384585
1071276,-292.79935884800847,-290.23328774287927,213.2210165487896
1071277,-292.4308154274708,-290.3340432583822,212.9626197313521
1071278,-291.7038070238082,-290.4912140937765,213.10744095353078
1071279,-290.28178724562696,-291.0276084484043,212.25231886419246
1071280,-289.7833945724856,-290.18543698617657,212.26333636786518
1071281,-290.55965348791113,-290.95741391164705,212.4628915125947
1071282,-291.0820184852917,-290.6408436819649,212.20080073234197
1071283,-291.20729673271,-290.6356884080652,212.07912032217303
1071284,-291.3791467565712,-290.80930508809274,211.84125730749327
1071285,-290.8933401375925,-291.29957511327626,211.89283597465962
1071286,-291.25683607124967,-291.3576447526287,212.0194038470467
1071287,-291.34698226577154,-292.00694101327764,212.34381812425767
1071288,-291.87913676873933,-292.938032721806,212.44855063609847
1071289,-291.31941629132353,-292.5652355017268,213.32140689734473
1071290,-290.472813543521,-292.7479793391808,214.28226174840722
1071291,-290.22459072342605,-291.5840331532364,214.43947613456498
1071292,-290.20708092014394,-291.04210771750076,214.1951091963517
1071293,-290.4644451108404,-291.20805973348655,213.5366938631646
1071294,-289.257534328499,-291.2055891892828,213.7954251572108
1071295,-289.0716484516545,-291.25009986975834,213.2164754015885
1071296,-289.40152245760845,-291.428138597568,213.89569426349436
1071297,-289.671896226157,-291.82161845403186,213.57936210941085
1071298,-289.87084459674696,-291.7000585134381,212.75186086732387
1071299,-289.3038168844567,-291.9600995863582,212.61710018899464
1071300,-289.5164801285769,-293.0652183754485,211.7287737343376
1071301,-289.21478372153996,-293.10909399711176,211.46431934500166
1071302,-288.4344887170048,-293.4903436985352,211.59636545963144
1071303,-287.79096115546304,-293.6168534422658,211.4305385500262
1071304,-287.97882971600825,-294.46659849675297,210.23959190668737
1071305,-287.57080554114333,-294.5776691980604,210.74658673835762
1071306,-287.4011752697755,-293.2054823893685,211.0767262083018
1071307,-287.58370118223957,-293.28816377000584,211.20661415517523
1071308,-287.5972901424978,-293.8678234021427,211.34527859319775
1071309,-288.40147002802195,-293.2182682007106,210.4489441749368
1071310,-288.00224840754146,-293.6080931802965,210.2703261173366
1071311,-288.0441356083755,-293.97218261943533,210.15150712573723
1071312,-288.47460503964646,-293.6775210025559,210.80633013705554
1071313,-287.5361818571059,-293.36354060053117,210.23944583603873
1071314,-287.8891892972442,-293.08510250736146,209.56085833104586
1071315,-288.4487643578958,-293.685189017108,209.80953193889118
1071316,-288.23390849335345,-294.1361597426112,211.49311230911013
1071317,-288.3914902752609,-293.8152755225171,211.3460851081312
1071318,-288.2596873608396,-294.2262854641443,210.5351852606794
1071319,-287.9784700494518,-293.5155816751757,210.08738616813503
1071320,-287.63128625079827,-293.73631353099154,210.35885825165226
1071321,-286.9585167687697,-293.79527459617265,209.6750338410335
1071322,-286.26394364812376,-293.4445742298051,209.52310491625732
1071323,-286.095802017411,-293.4944015348482,208.69619382971214
1071324,-286.476682606235,-293.90080855870156,207.6925699615699
1071325,-286.4463322002625,-293.5538290790344,208.07048618410278
1071326,-286.32527473838763,-292.94881362596436,208.5383337899687
1071327,-286.4894761567789,-292.8495741488316,208.36414318477932
1071328,-286.8812303370331,-293.625345817395,208.6554856809091
1071329,-285.9848890621054,-293.44295344078836,208.02897501840084
1071330,-285.36819001302,-292.73714495027923,207.60379497721533
1071331,-284.9425656121475,-292.4175457303643,207.94827123518553
1071332,-284.8312824173247,-292.0400454631083,207.5412466373343
1071333,-284.43035719613795,-292.06172204174544,206.98582254951458
1071334,-284.0780441745756,-292.91757493661856,207.0636634544207
1071335,-284.2262654457737,-293.24585304526886,206.87624916830185
1071336,-284.68364604359346,-293.73927186452204,207.5907015011788
1071337,-285.1977086195727,-293.6381696054574,207.0345939959264
1071338,-284.6579077899114,-294.31409966916607,206.8991989095221
1071339,-284.7141388104728,-294.618138527631,206.79279108460378
1071340,-284.19499839357456,-295.4908080423921,206.50262888181467
1071341,-284.32874616213803,-295.4844691334013,206.56368941223133
1071342,-284.0086959916392,-295.1625574613908,206.08454654008284
1071343,-284.1388364157139,-296.14837784828535,206.18014419015103
1071344,-284.0279821329137,-296.60358034172845,205.99318082204505
1071345,-284.24096178955415,-296.5889094519125,206.143341735331
1071346,-284.30905645030833,-296.8874773479288,206.01552972850348
1071347,-284.2278591354466,-297.2209398715007,205.86712315646236
1071348,-283.47139956189955,-296.650329129685,206.84849110035663
1071349,-283.582183369348,-296.1624632110212,207.31197422199372
1071350,-283.5891930265033,-295.6555324109782,206.90725788334913
1071351,-283.2392793801477,-296.72476569263694,206.88054802403062
1071352,-284.0303569647705,-296.65501745444766,206.48017937051455
1071353,-284.26570419025364,-295.83471159692596,207.0173678369702
1071354,-284.49858234862074,-296.93051936893613,206.74249639586208
1071355,-284.19431063849635,-296.1187802629049,207.62555517023208
1071356,-285.0235825464832,-296.16122751949615,208.29101077875598
1071357,-284.3740706920279,-295.9887435496787,208.19698164424102
1071358,-284.4896987779889,-295.98600542015635,207.7605665474401
1071359,-284.8683330261827,-296.54239010518995,208.22002904594007
1071360,-285.6050234568246,-297.4679802923348,206.44336750082826
1071361,-286.54486013300163,-296.93624426553794,206.6572886555744
1071362,-286.7139715033307,-297.02567604779574,206.3426661185796
1071363,-287.10003483537696,-297.6566670605935,207.38467031652118
1071364,-287.5015586631503,-297.98213548448,207.15478070062926
1071365,-286.8828070001497,-297.5324275337333,207.3985928736803
1071366,-287.2885538576384,-297.2052349778908,207.67236128844317
1071367,-287.2740259226407,-296.78735299138134,207.0900746459167
1071368,-287.7067297852724,-296.72363943506923,206.8926164411517
1071369,-287.74835284116347,-297.44004648588157,207.35681865735128
1071370,-288.1095459916107,-297.544711813197,207.54631684884606
1071371,-288.5487296397167,-297.2654491533801,207.90475975877746
1071372,-288.7106893302186,-297.7019967666758,207.71508820623745
1071373,-288.1724227714412,-297.43458104363333,208.18994066924728
1071374,-289.7829975593595,-297.07759799480505,207.53282928083726
1071375,-289.94170202459827,-297.1668939251427,208.0509645180558
1071376,-289.7486582910502,-297.324590198234,207.6911704302067
1071377,-289.0894455815961,-297.12544215378847,208.13802591033206
1071378,-288.84906649245943,-296.7510706875397,207.55624903814524
1071379,-288.3978719362727,-296.40396658813063,207.87655498334476
1071380,-288.8053084920921,-296.6248578887772,207.51829991092762
1071381,-288.6523512054051,-296.0447788006127,207.47468584350267
1071382,-287.8559017361244,-295.4301493961541,207.5044484672493
1071383,-288.6964308659185,-295.24512918727095,207.21783321369188
1071384,-288.98644409462213,-295.0627540825795,206.80044094083607
1071385,-288.9448793648531,-294.9851069367116,206.70123711322375
1071386,-288.86164837248265,-295.32646208210485,206.65712277533663
1071387,-289.5055395583715,-295.22287135396425,206.24645923253956
1071388,-289.7683370713056,-295.37550041409077,206.64635507954975
1071389,-290.2335726824827,-295.97788601266825,206.54809508721866
1071390,-291.2754569919842,-296.0747957239153,206.94924414322892
1071391,-290.7447755523197,-296.21913107567025,206.9484722207348
1071392,-290.4290736171894,-295.49807292997406,207.09825404605854
1071393,-290.5543403051237,-295.4931066857172,207.35442847375296
1071394,-289.46157001625954,-295.1501783465655,206.46804876759214
1071395,-289.1666539609609,-294.5252570010136,207.54862829055568
1071396,-288.90895793508116,-294.5877254182872,207.73973129504904
1071397,-289.5097870808784,-293.77611212615943,208.0531969388108
1071398,-290.11765934779885,-293.41398748873047,207.4153894713556
1071399,-289.55301227803136,-293.0180332803658,208.09482765129695
1071400,-290.2744258445089,-292.4716666492412,207.56792926330738
1071401,-291.6656514341791,-293.1618648876434,207.41185758868534
1071402,-291.03022075982614,-293.2806386421179,208.6034473968176
1071403,-291.24688086662815,-292.7457678189514,208.75143197381337
1071404,-291.555183419077,-291.48539660373257,208.0292405641589
1071405,-292.0010414250752,-291.15318216897475,207.26408198322446
1071406,-291.95014279445513,-290.8024778144687,207.72953795335104
1071407,-291.35310323805436,-290.08754691537854,207.78629119910394
1071408,-290.9222602979464,-290.2004196778288,207.82218219512296
1071409,-290.51540377663025,-290.0671129784971,208.2579114525237
1071410,-291.01275074683167,-290.625719454962,208.99639939495455
1071411,-291.2461426929449,-290.9691183727488,208.5215969178994
1071412,-290.6567950534728,-291.4490750141509,209.1670126237804
1071413,-291.3149969049132,-291.3662813769106,208.72345125781442
1071414,-290.95796852920455,-291.3318873946274,208.33459240277963
1071415,-290.951629604299,-291.2700440103226,207.83882788351778
1071416,-290.30297405168096,-291.0306761048503,208.05008779182813
1071417,-289.33793636860213,-291.8981414590698,208.19928285776723
1071418,-289.51267984886874,-292.166678280803,208.11208815715636
1071419,-288.14528700140204,-292.4972465022824,208.47592936907026
1071420,-287.7455331776348,-292.18846631127224,206.94849278102265
1071421,-287.869772208426,-291.74990104166744,207.16583734256733
1071422,-288.1539249524947,-290.671117069984,206.4861467887401
1071423,-287.98566021255334,-290.6885706958195,206.73262415616443
1071424,-289.40926451531675,-291.33071098128215,206.7641674370197
1071425,-289.3429631561569,-290.6267120942775,207.12424177225273
1071426,-289.12442848243893,-289.2800191720899,207.15904261038702
1071427,-288.29218145136554,-289.16153193798385,207.6071305531689
1071428,-288.8318233710422,-289.3291013410489,206.66511289294894
1071429,-289.3449571232789,-289.43305548488604,206.63509570609483
1071430,-289.0075569660088,-289.71804874532694,206.85853822257155
1071431,-288.88163008769567,-288.9542161262279,206.81417687434222
1071432,-288.7797745134685,-288.5977071014675,206.7687467666154
1071433,-288.53829709332024,-288.3941530737492,207.57581940447366
1071434,-288.47469466169235,-288.52288595823336,207.93115258799074
1071435,-288.49761385865787,-288.36716718848686,209.07844947306305
1071436,-288.61569230178713,-288.3685016437636,208.27741860215872
1071437,-288.18496513047296,-287.8014469199648,207.64211031264287
1071438,-288.26277873069665,-288.07298246424745,207.25844212942118
1071439,-288.32330464315055,-288.3190123421631,206.93204567552118
1071440,-287.88388528616184,-288.8057211202595,206.40173571355572
1071441,-287.90803351519395,-288.9345493437593,206.3360487003858
1071442,-287.663624223479,-289.5211469792724,206.93857975470155
1071443,-287.24991431273384,-288.80495050328034,206.28746465977179
1071444,-287.3715135687617,-288.87517087507246,205.97525147571685
1071445,-286.5275070019728,-289.3309459424277,206.77486795313584
1071446,-286.5410404006895,-289.32889312626605,206.47108371067839
1071447,-287.0917305706889,-289.03373471591686,206.40121121707577
1071448,-286.592202784799,-288.49033218620576,205.64568233256333
1071449,-286.5460065285381,-288.95749441554904,205.46080793695947
1071450,-286.85448061869926,-289.6844558625638,205.3326643280795
1071451,-285.9694507732138,-290.4689962904295,205.14318007001827
1071452,-285.7848160276801,-290.8464068520399,204.73564773342795
1071453,-285.3965885484874,-290.91412710190394,204.5216096636152
1071454,-285.62278491616087,-290.3560010010551,204.97742821772877
1071455,-285.49367282037116,-290.51995260033,204.891064866378
1071456,-286.4597900411033,-290.9720087269573,204.28697534416239
1071457,-286.32092584137513,-290.15560494474875,204.80893931201135
1071458,-285.99440904848984,-290.4023982242995,205.26220309786316
1071459,-285.91882226022415,-290.13815089670527,205.77769897265435
1071460,-285.80459031624497,-289.0966305095619,206.85321530669825
1071461,-286.44547415266555,-288.57090283857,207.0703219350224
1071462,-286.36662734365774,-287.52573944977973,207.3733000530915
1071463,-286.47285632579974,-288.0053619968281,207.69257051740874
1071464,-287.15034741111333,-287.1666088828055,207.69145802585726
1071465,-287.1416014549031,-287.5996463438372,208.14148372156254
1071466,-287.38919114678777,-287.79655970758074,208.15983894404204
1071467,-287.6728266021703,-287.68268078511477,208.0363389963414
1071468,-287.1864548755476,-287.5000063075226,208.38867979418015
1071469,-287.3169876791897,-287.6571990699995,208.63099603681218
1071470,-287.21137859988556,-288.8107664380754,209.30322085341626
1071471,-287.0544927392042,-288.602551134486,208.83083479268464
1071472,-287.01976436842705,-288.4928141723197,208.26080852863274
1071473,-287.1384016432479,-287.96254163458065,210.11387872956567
1071474,-287.68621501734725,-288.3090051022132,210.02972295561372
1071475,-287.131938954497,-288.18932313813923,210.13745236319394
1071476,-286.79951559129375,-289.13198837932265,210.6504398224397
1071477,-287.3091535299171,-289.85192557502336,210.34742965555898
1071478,-286.52908006966317,-289.89035167873334,210.25322313882268
1071479,-285.97713621389903,-290.15015815554426,210.95491353199327
1071480,-285.9200609063336,-290.3514922830065,211.02923593108153
1071481,-285.0545600564325,-290.49907337878847,210.8583689138023
1071482,-285.22637228172164,-291.04177277306235,210.77659801759705
1071483,-285.01469726369004,-290.9678694626542,210.46117057600392
1071484,-284.9604836256389,-291.13554098140867,209.63059854729266
1071485,-284.9405200780229,-291.2031475375753,208.84196593939544
1071486,-285.137681684437,-291.34832219525686,208.65325146610908
1071487,-285.4642174035336,-291.90297516709114,208.9431340831833
1071488,-284.9551487911859,-292.16034035517805,209.1832091335877
1071489,-284.67008329000134,-292.09698323577305,208.76955838478455
1071490,-285.3933666895756,-291.6536682192832,209.34037813849244
1071491,-284.96911573581986,-292.2216460234736,208.91934470246017
1071492,-285.1532964254984,-291.79791936364114,208.07982528128292
1071493,-285.71442428483635,-290.5217939724106,207.25406262872878
1071494,-285.72150188557157,-290.2200565155576,206.8770353461687
1071495,-285.8581895776948,-290.69778332187116,206.98346098368404
1071496,-285.2222541106688,-290.1885339400046,207.19613149258763
1071497,-285.69078142043855,-290.8843284169913,208.05386900789887
1071498,-285.74875331585116,-291.4824417272947,207.45611021071025
1071499,-285.48520569338007,-291.8449604390817,207.98326599909103
