sample,gyro_x,gyro_y,gyro_z
1041500,-343.78148369121345,-177.71053155897573,279.50804869214164
1041501,-344.0716413761971,-177.32345100752198,279.5871347975181
1041502,-343.6468307820412,-177.20767668512997,280.15535998639075
1041503,-343.0567894977896,-176.89413319084636,280.524970741604
1041504,-342.2109873142553,-177.24503758281875,280.21654729164317
1041505,-343.04319537052623,-176.9621369405717,279.8640561092485
1041506,-342.8709905627012,-177.86775081404403,280.2749327554566
1041507,-342.51625834494445,-178.03404633857457,280.5177511888298
1041508,-343.01773829714404,-178.18463149717758,280.1952033828132
1041509,-343.27283366650164,-178.5220247686981,280.68527772958805
1041510,-343.2068857437871,-177.0819351324053,280.60727741594224
1041511,-343.3250679173568,-176.8704993237506,280.8649626059874
1041512,-343.1165721989326,-178.92706181892845,282.0037461785742
1041513,-343.1299221969355,-178.98854955724542,282.2786049277326
1041514,-343.3040488612555,-179.4817888030387,282.04798398927164
1041515,-342.8471338929988,-178.3074941535951,281.9960618492665
1041516,-342.4523408065656,-178.56394690077036,283.0954168403369
1041517,-341.7124064971223,-178.96912473474094,283.1415845395908
1041518,-341.6077471817908,-178.61306424234985,283.5582832804805
1041519,-341.76858975103573,-178.12515500051464,282.4147909883865
1041520,-341.72988423640476,-178.18176867369905,282.14755082992804
1041521,-341.58407539530293,-178.6918357470102,282.1644284155595
1041522,-342.15324367583787,-177.6223112105492,282.51762828793443
1041523,-340.9394063730426,-177.45415032226379,281.3009811076145
1041524,-339.6118736845809,-177.21488795935295,282.2533652783932
1041525,-338.7666302871786,-176.67824957631518,281.3218525620414
1041526,-338.91693575317703,-176.92179191531665,280.90560769631907
1041527,-338.8712992139989,-176.08991599912167,280.08730526655324
1041528,-338.0540415178909,-176.19976823733919,279.7255661525716
1041529,-338.4579986371186,-176.74318780252716,279.2089247395618
1041530,-338.300056313229,-176.82060611586618,278.8138112305366
1041531,-338.9634535649827,-177.24635622833105,279.20549631549176
1041532,-339.2281452548848,-176.73203730030937,278.82620530274653
1041533,-339.8458069559048,-176.82214350606594,277.50011473076756
1041534,-339.4136034181096,-177.4080026339414,277.49290983727076
1041535,-339.7896176116216,-177.3033906776628,277.6272196962725
1041536,-339.1077496408079,-176.74527547920587,277.0246854451654
1041537,-338.78965298731873,-176.35867884638708,277.75133804303886
1041538,-338.54881277863245,-176.03524917008815,277.8918729395089
1041539,-338.0025346100973,-176.0646659978254,278.70942845900504
1041540,-338.0718088289474,-175.7133733214418,279.0355958435596
1041541,-338.1142810263568,-175.60906334758707,278.63480424598856
1041542,-338.659271629239,-175.44226257198537,278.4997335840138
1041543,-337.9583773727874,-175.54175435524263,278.6669014524786
1041544,-339.13471562131787,-175.43140843055716,279.0361968281525
1041545,-339.8047547941336,-174.49264367203142,279.08019016565027
1041546,-339.22153635018947,-174.06582327519067,279.037546033222
1041547,-339.31074236319415,-174.37423240733813,278.46364957726433
1041548,-339.4308907432262,-174.69097973545274,278.254410648901
1041549,-340.05595241339813,-174.62647380460442,278.4655943082088
1041550,-340.3502489046388,-175.16022251201935,279.1256496029587
1041551,-339.8632176395546,-174.17419950914544,279.5240091243079
1041552,-339.6014635866411,-174.79447622165677,279.20545840032
1041553,-340.55430762098047,-174.35885609565477,280.5832924031903
1041554,-340.0955124773586,-174.16973591954434,279.9017800004455
1041555,-339.18462052439713,-173.93457175564757,280.2295474899209
1041556,-338.99546002179756,-173.25988729722147,280.8435037048067
1041557,-338.75879271567646,-174.0595895780488,280.71327233597884
1041558,-338.186165992615,-174.6005021214205,281.5791317150873
1041559,-337.7172085758792,-175.45524440578504,281.7199572263365
1041560,-337.36931008997965,-175.1820264305579,281.72815774170135
1041561,-336.4096414000789,-174.9074350860454,281.4319157437085
1041562,-336.01501009052566,-174.10356603369695,282.25047941551554
1041563,-335.22398831136496,-174.15163650154227,282.26089597205964
1041564,-336.1256139632678,-174.50292065233597,281.2761354292043
1041565,-336.7264332613124,-174.01499666594083,281.4241474957845
1041566,-337.2266001247826,-174.1332268211651,281.51152177539
1041567,-336.9399840013678,-173.82288644816254,282.29811186606685
1041568,-336.9524150490663,-173.1766387423352,282.72610875196233
1041569,-336.49294270644145,-173.6464457096871,283.41088038399556
1041570,-335.8224798574943,-173.74089879879688,283.8369974312935
1041571,-335.82771826455337,-174.11586187393485,283.03969060893377
1041572,-334.810908315588,-174.13070086244994,283.57722947026946
1041573,-334.8034319394251,-174.49982857531114,284.2842353509239
1041574,-334.84074496523033,-175.38894143651595,285.48939680743894
1041575,-336.2030026409946,-175.4980516732569,285.7184826383219
1041576,-336.4704791365462,-175.5447579242345,285.613286582668
1041577,-337.25130516467743,-175.20531038246676,284.80665575423194
1041578,-336.50853750309847,-175.63180655938547,284.57950244298723
1041579,-336.38449924677076,-176.26421157304551,286.2035858592877
1041580,-336.7714778361541,-176.44115724923034,285.8811983647586
1041581,-336.12561227634586,-176.22066201495576,285.6567889237735
1041582,-337.1026963620372,-176.2590536391517,285.15231401788196
1041583,-337.42108615101154,-176.50720875074384,285.2021909271614
1041584,-337.4189980156507,-175.43153139068153,284.92923940023064
1041585,-337.69605704257987,-176.04509179979465,284.2678002440858
1041586,-337.32117207489574,-176.5834740361107,284.2258263584968
1041587,-337.18077691512957,-175.74982422092634,283.9863042018331
1041588,-336.94366632155106,-176.24760697432657,284.3145270175292
1041589,-337.60525341531854,-176.5529238678153,284.2896723275727
1041590,-338.1189237529204,-176.12438172523844,283.4763059226019
1041591,-338.1349733434084,-175.90657973407932,283.44208090038694
1041592,-337.5931786716579,-176.0674342406714,284.6021649095047
1041593,-337.5997189003716,-176.42138637960824,283.8455172123146
1041594,-338.15907204231274,-177.1210909666749,284.57118417410607
1041595,-337.75339050874254,-177.58907578676718,284.8029271240915
1041596,-338.14694237526226,-178.40119151431017,285.1483309973635
1041597,-338.62057875489484,-177.513820135722,284.89190340326
1041598,-338.0557456280954,-177.83038205976047,285.3979652522331
1041599,-338.31600820017366,-178.10871631769737,285.03832555435156
1041600,-338.64130976698556,-178.6108931828507,284.7042306984191
1041601,-338.53441581068654,-178.78278563664864,284.5753102744825
1041602,-338.94835480246434,-179.16040126614772,284.63497604226814
1041603,-339.34929529325973,-178.73286551515739,283.98093517047016
1041604,-339.2031075911293,-179.03648662758056,283.4669150048483
1041605,-340.1104250454497,-179.6344560444418,282.45655831424693
1041606,-340.2459810545369,-179.86445485729888,283.19624857804484
1041607,-339.8593146020278,-180.3066962639655,283.4998319055095
1041608,-339.8143114598842,-181.22199276569845,283.3154563745947
1041609,-340.5352339008797,-181.35772587142645,283.23738208703276
1041610,-340.5690611770061,-181.65499587396585,282.92711642618383
1041611,-341.130235744351,-183.374339289203,283.3014885373259
1041612,-341.5120599151347,-182.97008230513507,283.0376672989421
1041613,-342.1468484188791,-182.91582304073026,283.3711079361076
1041614,-341.56042007733294,-182.65930885303518,283.3432600053156
1041615,-341.48275764686366,-182.63882410890182,282.9718384024119
1041616,-341.4202350902902,-182.01928347978452,283.5260345232889
1041617,-340.77061378223436,-182.22504553540224,283.9067893833714
1041618,-341.0014320054787,-182.35868949192965,283.3056939666486
1041619,-341.76763336350285,-182.84196353552056,283.37375388131085
1041620,-340.98723174546416,-182.65405495566478,283.66821654259115
1041621,-341.23990764075666,-182.59307200567315,283.16231575910666
1041622,-340.06875819013425,-182.35466412679358,283.6030540483673
1041623,-340.7950846096308,-182.33785304443296,283.6836683289155
1041624,-340.854049420775,-182.62806704509177,283.8496599474876
1041625,-341.1868132893367,-182.90535809165033,283.42005467503924
1041626,-340.68107699245684,-182.48258712509045,282.97599338959117
1041627,-341.1951635982689,-181.86873769304015,282.0577040493339
1041628,-341.8396294956148,-182.15170924869264,281.592792732906
1041629,-341.258499936326,-182.729782629401,281.4125670370858
1041630,-340.81789915436445,-182.55407205661913,281.1500045783476
1041631,-340.94394341501754,-182.42150017379365,280.252546629754
1041632,-340.6336934935487,-182.20709304729667,280.7986613919863
1041633,-340.72355078217294,-182.45198571429646,280.49864290306067
1041634,-341.13091413552957,-182.40408352514146,279.98172710309404
1041635,-340.9215899279915,-182.77056280805624,278.79307871872913
1041636,-340.9784637133796,-182.807960058781,278.8865078188801
1041637,-340.53631974493754,-182.69939336081973,278.7174493411019
1041638,-341.24725450405884,-182.85176263962157,278.67579580678495
1041639,-341.6914022146914,-182.74876608683465,278.6624630772767
1041640,-342.15514024061,-182.21147279146518,278.88429244702826
1041641,-342.0235313149371,-182.2840239020353,279.1013429003413
1041642,-341.7078626645933,-182.04454834959034,278.89217492707735
1041643,-343.1686448561913,-182.48490634155766,279.1710777068849
1041644,-342.1466375291482,-182.12641420344627,279.19173201456846
1041645,-341.5570146699445,-181.8038891967412,279.4626470478734
1041646,-341.3746777809812,-182.2202227078119,280.26869908289945
1041647,-340.35860043755963,-181.1878485849599,279.73144247455565
1041648,-340.07232000287354,-181.10202811075325,279.89212448095066
1041649,-339.87560977971924,-181.58879273271504,280.05677639844924
1041650,-339.7756684163089,-181.49031530604276,280.5645159671693
1041651,-339.35366470551537,-181.33309188100858,280.04421732741105
1041652,-339.3389304567938,-182.17262010865065,280.7245013570226
1041653,-338.7786004001741,-181.9729676955036,281.4064007971027
1041654,-338.7245096312934,-181.56287005361474,281.5161079430677
1041655,-338.9868666530917,-181.5125263942591,281.37973933094423
1041656,-338.67847077821693,-181.79104045182999,281.3851678316137
1041657,-339.19310687372405,-182.357626062439,281.45094675917574
1041658,-339.521118094322,-182.85980299648253,281.0985341684382
1041659,-339.2940218631116,-184.20449285859496,280.74043105029483
1041660,-338.48964035787304,-183.7555994984823,280.12990118889593
1041661,-338.77317702336416,-184.39224238078342,279.5895652684603
1041662,-338.5018419232131,-184.82937476880326,279.79908601132803
1041663,-339.08904923651335,-184.73348673887673,279.5852833310004
1041664,-339.4963189109016,-185.0929344086465,280.33340342208254
1041665,-340.2110651847482,-185.0162231913677,279.9028980559078
1041666,-340.98802974498653,-184.8045651852215,279.413433259651
1041667,-340.38133923149206,-185.16954819487415,278.95256231445256
1041668,-340.0701906122835,-185.04251730152194,278.8473032798217
1041669,-339.2514227581403,-184.40102455977987,278.9424499278224
1041670,-339.0801811711944,-184.40885811599028,279.0577164053473
1041671,-338.3615678189885,-183.89786804563033,278.3291395307265
1041672,-338.6834383523168,-183.5464937236023,277.9041109694073
1041673,-338.6545804509994,-183.43845580599847,278.2640839532894
1041674,-338.9993220586744,-183.56397637074366,278.0066040339805
1041675,-339.3567689613804,-183.20995452413533,278.76756971173376
1041676,-338.52790319241336,-183.60625487728035,278.56820990896614
1041677,-338.2802773666988,-184.00858013499194,279.251905064385
1041678,-338.40413541242486,-184.1292969133517,278.6796821267955
1041679,-338.43561161631925,-184.96670247674223,278.75519686259395
1041680,-338.45223055583824,-184.2430750837942,279.2484050463206
1041681,-338.0663143781795,-184.67995610524082,279.65937549577046
1041682,-337.97602018389256,-184.91207409866539,278.8651826827207
1041683,-337.7148895857272,-185.20824425959165,278.43741950035445
1041684,-337.9978678574854,-184.72388995702056,278.64926971240453
1041685,-337.0211969081863,-185.18704026436416,279.2556753970383
1041686,-336.9699748881505,-185.51873016337012,279.51985470327503
1041687,-336.58527890010464,-185.6136375882388,279.8759862534246
1041688,-335.0980931312444,-185.8687165268812,279.81447957722753
1041689,-334.82741356047103,-185.57120515013398,279.7408551649691
1041690,-333.9700869161139,-185.26504426771837,279.3207937117012
1041691,-333.49516746173595,-185.8032641839181,279.73600624043166
1041692,-332.5146567236901,-186.7620882731808,279.5280085171911
1041693,-333.10825691313727,-187.087454808427,279.27160561757614
1041694,-333.4936212127745,-188.1508175374495,279.4617212945466
1041695,-333.13832413666603,-188.34828824381287,279.6899677206092
1041696,-333.5052805603594,-188.38013494119784,279.4167623234042
1041697,-333.4201999641735,-188.02594057651743,279.0542219415039
1041698,-333.34978163383005,-188.00663228599643,278.92316960058594
1041699,-332.57428488968134,-188.03683127660267,279.0154539423326
1041700,-333.00613726989695,-188.4301488348974,278.65671426900605
1041701,-333.8318066074725,-187.886808774042,278.3808628406825
1041702,-334.0181919960253,-187.34859583480045,279.02649358527793
1041703,-333.9197206404908,-187.46475166857758,278.607748890654
1041704,-333.5490476337926,-187.89019613681475,278.85889328676893
1041705,-333.67915100736246,-188.0090411115854,278.9620520482653
1041706,-333.99089599295286,-187.93872960912876,278.98563999519325
1041707,-334.58628996848114,-188.14001877088134,278.3110682129764
1041708,-334.5823496291101,-188.53640033132476,277.74765173573877
1041709,-335.08541926662934,-188.16960925833686,277.7701302037254
1041710,-335.7344791492734,-188.62637463053096,277.885555087498
1041711,-335.8751963699042,-188.50950689285915,278.05373384090336
1041712,-336.1025719835015,-188.76553736018707,278.2305555106107
1041713,-335.76663028270747,-188.85995959935423,279.36597622908914
1041714,-335.89791156386076,-188.52880195041203,279.0724437354418
1041715,-336.1498710243021,-188.6941016008384,278.34439980292115
1041716,-335.7821209193481,-188.64904810322065,277.90150767489456
1041717,-335.58795633603313,-189.50738301733247,278.39732270428226
1041718,-335.8856309162684,-190.17827086648222,278.27606658458507
1041719,-335.28777483893936,-190.2112049829017,279.35484673003083
1041720,-335.15007569476205,-190.76954672338107,279.99217360278465
1041721,-335.0126818509687,-190.76638840133668,280.1529609709453
1041722,-335.043459409391,-191.62662329178647,279.5343509112526
1041723,-334.91641575766414,-191.59360673232027,279.6463071453389
1041724,-335.10116036286655,-191.67942598866566,280.1861392447657
1041725,-335.4805858278685,-191.2800053600225,279.3177184127149
1041726,-335.93575786408127,-190.88718156363356,278.54941160745165
1041727,-335.8606065445427,-190.48366295329188,279.120199912054
1041728,-335.74448069101817,-190.22310716851783,278.98242132650404
1041729,-335.67597361053055,-189.71509609896003,279.5368245560852
1041730,-336.08458946746225,-190.11844945788832,279.90733516588296
1041731,-336.0366105179431,-189.95587899869105,279.8810561781502
1041732,-336.3968372352665,-190.14276945380766,280.56213893361644
1041733,-336.2430938701529,-189.56829546108204,280.0506221448967
1041734,-336.11744361527303,-190.08214449200855,280.73092089861643
1041735,-335.9658312091413,-190.7360266423406,280.2630125054085
1041736,-336.25379666213695,-190.5995781580311,279.93956435475627
1041737,-336.55451196290466,-191.1425628354418,279.90227314119454
1041738,-337.1383109195155,-190.34403388869364,279.3045030020443
1041739,-336.89364651840447,-189.97994355194197,279.300371023473
1041740,-336.3233909271384,-189.3892905676714,279.45156056377124
1041741,-336.53147364416634,-189.41332820620167,279.1349653485812
1041742,-337.29891461808376,-189.37952299678935,278.42869211801553
1041743,-337.2724718873262,-188.8925616411901,278.3490059151948
1041744,-338.75810591296454,-188.70111481031304,279.18200173056147
1041745,-339.5808283802189,-187.28652430082334,280.0345714231736
1041746,-340.1479681041462,-187.76546777443588,279.5598431097192
1041747,-340.3063262539525,-187.53954553170718,278.8753211686215
1041748,-339.94911615387656,-188.14598457055143,278.9619813732036
1041749,-339.47178357801516,-187.7610282294831,279.23985156826365
1041750,-339.2312521374281,-187.6529019793749,279.3931594948693
1041751,-339.8810382961588,-187.85262596244027,280.18956897748427
1041752,-339.58759238793886,-188.43693721617313,280.26703245644205
1041753,-339.9154031571507,-187.90708293990605,280.08481720035024
1041754,-338.9574730316767,-187.36314859529674,280.0872072815313
1041755,-339.3683807562377,-188.3470576193795,279.54472618310945
1041756,-339.5416682575461,-188.28111768053458,279.3653240459909
1041757,-339.4179865537826,-188.79476858306822,279.6174745113072
1041758,-339.8319194179888,-188.74278265449215,279.5441557594372
1041759,-340.2176504781213,-188.41240551446373,280.4083715103491
1041760,-340.3634946803857,-188.34410536399406,280.6849469030156
1041761,-340.5493951117511,-188.4542806724008,280.27279643481484
1041762,-339.94067861428675,-188.2540518947949,279.8160270147238
1041763,-340.452552023277,-187.6686484632131,278.92822843208637
1041764,-340.5106292577864,-188.40398414481146,279.2517764577244
1041765,-339.6377556688028,-187.8389435834119,279.2070984094268
1041766,-339.2709184108437,-187.47241011736364,278.8747964524984
1041767,-339.87000120552074,-187.53649374999588,279.2361880494894
1041768,-339.77245490437497,-188.22381709410737,278.9592517099138
1041769,-339.591845108864,-188.93729637927905,278.6320425415285
1041770,-340.3025035826485,-189.5239288348026,279.0448583732606
1041771,-340.1936600364501,-189.67915070717757,278.31739942536916
1041772,-339.87228499147096,-189.52789656199124,278.089060039461
1041773,-340.20149143537043,-188.75752974449668,278.0266640179452
1041774,-340.9134095658546,-189.20239028458147,278.3385278607393
1041775,-342.0470043779184,-189.10125119621273,279.1585959552086
1041776,-341.36576125356953,-189.51315239971788,279.190185228397
1041777,-341.8136620413694,-189.76227361496007,279.748753101039
1041778,-341.1831866911203,-189.70595099075896,279.82874154607174
1041779,-341.62212552876434,-189.52942869784036,279.438539492261
1041780,-341.5015224975683,-189.545840692638,279.6628681691215
1041781,-341.7799069777838,-190.11181579284397,279.50900642639243
1041782,-341.94947213767136,-189.88586268548227,278.7219093950231
1041783,-341.78771839082214,-189.79612890220926,278.8766511821766
1041784,-342.6751275560536,-189.63839878033664,279.6061232719791
1041785,-343.49119748428603,-189.3674536837005,279.9679757379952
1041786,-344.0478819546309,-189.83442001591538,279.57303142918425
1041787,-342.58132629702965,-190.53654497792738,279.5132311192333
1041788,-341.50329277229423,-189.84948302572374,279.55817981332916
1041789,-341.58659877393694,-190.3979577106452,279.5187404498918
1041790,-341.76108835646113,-190.5536210554069,278.66127420032456
1041791,-341.68312727507794,-191.21923636163785,278.9334518042759
1041792,-341.99611110052643,-190.66070692222442,278.57040042842715
1041793,-342.45308451727726,-190.39643808812608,278.5835321556122
1041794,-341.74371764949314,-190.55501192047998,279.1956022749394
1041795,-341.69111054942226,-190.16259781680168,279.24951863060943
1041796,-341.0924277619061,-190.7924376486413,279.6247089941879
1041797,-341.19453410078694,-190.69073290802484,279.5746736190317
1041798,-340.99418493874487,-190.53637874438667,280.669746192011
1041799,-341.07793389075096,-190.78120935108936,281.1089799657047
1041800,-340.91485721256197,-189.73821130642844,281.50610304501873
1041801,-340.74601812923447,-188.90054828271332,281.6059172788302
1041802,-340.7314521311916,-189.2900865656442,281.7745826662788
1041803,-340.9927578997229,-189.31204570894764,281.4551567425534
1041804,-340.9525975283719,-189.31402545795822,281.7122628189324
1041805,-340.60863963632454,-189.79872734373203,281.7307137696292
1041806,-340.6459382180526,-190.6957579102058,281.8785046175371
1041807,-341.3223793031759,-190.5173296280336,281.6172170591522
1041808,-341.79380682491717,-190.3705128811948,281.95058821540863
1041809,-341.8417476996467,-190.88456127103842,282.1531755444709
1041810,-342.00363919018326,-191.27769667797025,282.6463581809371
1041811,-341.5867838596895,-191.18546604983447,281.9326292435266
1041812,-340.9980419799938,-191.1733871502149,281.21080773580087
1041813,-341.4503612590555,-191.32991454037852,281.63883902624127
1041814,-341.4097001008344,-191.28026545405137,281.78071841304654
1041815,-341.1484093746037,-191.5607125195644,281.2727678849752
1041816,-341.94598980269933,-192.10867292095003,281.9806691597257
1041817,-341.66711211010977,-191.52121092490108,281.848055259501
1041818,-342.1169707741578,-191.57691405822126,281.7012362022589
1041819,-341.1830126862775,-191.60853473918857,281.4573361324677
1041820,-340.3866648771266,-192.0286396310991,281.04278020043444
1041821,-340.0733991339275,-191.90371944517062,280.98249315381474
1041822,-339.45659675448417,-192.25891534466194,280.5820657976983
1041823,-340.19342180887537,-192.86792250109715,280.90293755432117
1041824,-340.0994090243635,-193.18855538980637,280.8419118949743
1041825,-339.7184044145973,-193.37680087963926,280.20772347251307
1041826,-339.4219037672986,-192.8131937875712,280.3892891695253
1041827,-340.05207084272837,-193.45257948997101,280.5466028810318
1041828,-340.47396754291606,-192.96324177818835,280.6726686800457
1041829,-340.0741871371327,-192.81660582272855,281.2580882448286
1041830,-339.2867910014496,-192.25523875186164,280.7962735598305
1041831,-339.4150595518039,-192.80526696560548,280.3805051488285
1041832,-340.38961340964454,-193.31125173952876,280.9195854577843
1041833,-340.2576055931125,-192.88907898539512,280.91637798011624
1041834,-340.64840861385244,-194.1601055289888,281.049911001331
1041835,-340.9303820869433,-193.41356101789293,281.2913975754759
1041836,-340.94547203630304,-192.82546733619134,281.91271832305364
1041837,-341.19585552530765,-192.6352988773715,282.29002592718746
1041838,-340.6743981218629,-192.36201843913452,283.00072043758587
1041839,-340.10313626294374,-193.41843623301193,281.9881062082939
1041840,-339.2149391970322,-193.50585120357294,281.94212050097974
1041841,-338.7485696253431,-193.55651344857318,283.48644215056237
1041842,-338.9250715974277,-193.02432194166167,283.6033212874018
1041843,-338.8539470121735,-193.71336012834757,283.9340368281867
1041844,-338.5629897136171,-194.0012602253859,283.9878217006885
1041845,-338.8695093625471,-194.82866071036224,284.322193417605
1041846,-339.3315744213663,-195.3954402378318,283.8691497979269
1041847,-338.8119679393493,-195.25951713920958,284.34925444774194
1041848,-338.9920429408432,-195.18851220463625,284.07180355856906
1041849,-338.42669914770545,-194.8797164509685,283.0051039703663
1041850,-337.68361755153165,-194.82257708571439,282.4218911335245
1041851,-338.13007277903114,-195.46044945177456,282.84047717417826
1041852,-338.2672078274342,-195.33881396561836,283.1771319139015
1041853,-338.6096720617443,-194.8990493918745,283.8105493446025
1041854,-339.14748125751015,-194.83305614842325,282.8015006107293
1041855,-338.3485991384313,-196.01345892359615,282.7674713212059
1041856,-337.8381943422876,-195.69513536810075,282.5154960632675
1041857,-337.229624624967,-195.27923633537563,282.2482241552424
1041858,-337.6979387590913,-196.10306363910348,283.6439380796613
1041859,-336.7704579591286,-195.5696117189068,283.5823276363164
1041860,-336.8731748385295,-195.98082207699937,284.0625571817247
1041861,-336.7223805888301,-195.91352620561335,283.9294523297768
1041862,-337.03240269721726,-195.37026664412872,283.83008931210964
1041863,-335.6128674966815,-195.53909091111439,282.98156663454984
1041864,-336.10138304129765,-195.23667829153,283.5794875468594
1041865,-336.6709023377188,-194.65538968506817,283.2680902357526
1041866,-336.02387877397587,-195.84090701524323,283.47838630038154
1041867,-336.4218513103772,-195.48923016644068,284.01261257808255
1041868,-336.6476951571031,-196.41726544403843,284.29161776782365
1041869,-337.4901237156106,-196.8976010381233,284.0964520145756
1041870,-337.4667091880947,-196.96991819712167,283.2454961429923
1041871,-337.4395436277285,-197.6038541544002,283.8069838392799
1041872,-336.83073028447546,-197.06255533663344,283.86802554226506
1041873,-336.0948841325224,-197.00158958674785,284.060396739931
1041874,-335.6850042336094,-196.7913538844736,283.77146165024766
1041875,-335.73744699192224,-196.52450709102294,283.2330929325471
1041876,-335.8628147608081,-196.0027061137418,282.90641113716777
1041877,-336.262887184938,-196.56937549317772,283.2455396933428
1041878,-336.60632960246437,-196.95496991981386,283.28972759114663
1041879,-336.56900679815976,-197.83978427036132,284.2699681766274
1041880,-336.84513669560926,-197.61435049771757,284.660559456651
1041881,-336.4047722641916,-198.07335175875264,285.82677503948605
1041882,-336.49248092168256,-197.95414844600202,285.9042800356873
1041883,-336.5945802186902,-197.09903954647126,285.6532450147739
1041884,-335.5896018123871,-197.34825194941277,285.6574540104417
1041885,-334.47421624323493,-197.53062361817805,285.7828700594621
1041886,-334.9131646652963,-197.439636469127,285.3225108726312
1041887,-334.8348092674668,-196.81605383575138,284.3786867197392
1041888,-334.4960025317398,-196.205076972156,284.068813881022
1041889,-335.0272044639002,-196.01604483642225,283.5850416264499
1041890,-334.95512699953855,-195.8650594492732,283.0938511706928
1041891,-335.3090149813047,-195.95879528504656,282.4420957110873
1041892,-335.1111777917209,-196.0510972818491,283.5103839869894
1041893,-335.5880243024645,-195.68588743120725,283.95378611464844
1041894,-336.42620341576924,-196.21580625242973,284.08227477775165
1041895,-335.476874814573,-196.08042385268692,283.1917597740318
1041896,-335.8419152822057,-195.35530121306945,283.8888228547288
1041897,-336.4304244315335,-195.2199947627935,284.19836837461065
1041898,-336.52886809619037,-195.5263203592993,284.393455538812
1041899,-335.67335763258785,-195.13045612248115,284.2406879787454
1041900,-334.6679713077882,-194.99406625996014,283.98976588312553
1041901,-334.8088208060831,-194.7081708457277,283.0215916473814
1041902,-334.7902316606358,-194.29808962791589,283.2328573657538
1041903,-334.2164523167395,-193.2638330944066,283.1188125864348
1041904,-333.94025756625257,-193.1026168134597,283.57807672510745
1041905,-333.7386430037584,-193.71753719259382,283.81329604023034
1041906,-333.95223344262115,-193.49607370749032,283.73571020214746
1041907,-333.6111307953833,-193.8469397631047,283.37686983549463
1041908,-334.6426073965065,-193.0639435433196,283.5528193365508
1041909,-334.0714595598848,-193.56954978304964,283.1488052560903
1041910,-334.8347568797341,-193.2459787406179,283.19525439586295
1041911,-334.5884416266547,-193.4037378447975,283.0909360200352
1041912,-333.6453566894479,-193.15018740835285,282.81249863479104
1041913,-333.2566576542126,-193.2951394783686,283.1041344253224
1041914,-332.7443799505261,-193.08637820134314,284.31204735649067
1041915,-332.55590844710156,-192.87508336418554,282.8348702712221
1041916,-331.8062755074394,-191.8708069084549,282.52994662424464
1041917,-332.38490726090333,-192.2145803207329,282.73389819117267
1041918,-332.4010908715481,-192.07134705994181,282.94047894354895
1041919,-331.8836778105304,-191.2174782975974,283.27186140571456
1041920,-331.6505776682308,-191.03774835990066,283.7494464098425
1041921,-332.0378493540799,-190.50022862312193,283.23257699083644
1041922,-332.0360573783667,-189.7070736108014,284.073046889258
1041923,-331.91733083217474,-189.67446182861642,285.3942403361095
1041924,-331.9186722019139,-190.3136029643119,285.5371079132172
1041925,-332.381402072734,-189.83243249939994,286.23955861549445
1041926,-332.31464986996474,-190.26350596172946,285.7896415294483
1041927,-331.6537613200514,-189.48334964474742,286.1177821608123
1041928,-331.8412725046143,-188.09228645913313,286.6275240431042
1041929,-331.79056575835983,-188.11071524784873,286.83274697496165
1041930,-331.6331631677988,-188.32975127190548,286.8882364814981
1041931,-331.44732597561074,-188.4975296757695,286.9655251209221
1041932,-331.14815011939146,-187.83613747395276,287.42916000378625
1041933,-331.4324528951074,-188.25265342446525,287.3240669320019
1041934,-331.7425913163716,-188.02407776887247,287.7943996212141
1041935,-331.6935021362772,-188.64855477058236,286.9797127526717
1041936,-331.9619786231786,-187.85667228944536,286.4822868190664
1041937,-332.83139243678863,-188.20136866610622,286.41237273072346
1041938,-332.77354093594516,-188.21122594245747,286.01468054117703
1041939,-332.5443247410422,-188.15038590538754,286.9406927090935
1041940,-333.2044304256181,-188.64773166228568,287.09810446850867
1041941,-333.1669973061378,-189.4754343053503,287.4529506274655
1041942,-332.80215772839,-190.03632754018716,288.1474367775193
1041943,-332.4814655028564,-189.66181738704273,288.42055920722885
1041944,-332.35766433855025,-189.99901567500393,288.6336283081296
1041945,-331.9587860931656,-190.00185489471235,289.7733545855506
1041946,-331.14479010830775,-190.23834480758276,289.99206456401635
1041947,-331.3778976513442,-189.94216174531115,290.5510758071003
1041948,-330.66871907416885,-189.87022674509586,289.78004227603486
1041949,-330.99506187369957,-188.61158165404962,290.4993634573023
1041950,-332.01049430322905,-188.3334414409926,291.0901853340061
1041951,-331.5214484547533,-188.12435262047498,291.54637571816596
1041952,-332.3326193330824,-188.25792951029845,291.8223911043103
1041953,-331.3440723294775,-187.66400307051234,292.306943082954
1041954,-331.7574448197159,-187.91820974066104,291.8431734611162
1041955,-331.7702805923222,-188.0332949693159,291.23174030142803
1041956,-332.0002761263768,-187.77637234857195,291.7014033832405
1041957,-332.524230212536,-187.90343814865966,291.13921140712876
1041958,-332.14405411125585,-187.29617216196834,291.3557120214853
1041959,-331.6344993113328,-186.80214571258614,290.8880119004206
1041960,-332.02868669627804,-186.62231057971826,291.90247417243853
1041961,-333.2206370184855,-187.22379338588604,292.3965863768037
1041962,-334.4114234536553,-187.72310013199305,292.958342596721
1041963,-334.15537420425574,-188.14775595229307,292.4069834199519
1041964,-334.19653764365125,-189.16055422518266,292.0725292393352
1041965,-334.059270278291,-188.81329667157303,292.6613800578618
1041966,-333.70802481735393,-188.72832675238314,292.66451540401636
1041967,-334.1892916251216,-187.48712251768922,292.19539598188015
1041968,-333.80493765221144,-187.7863140621931,291.9672525090094
1041969,-333.2781019875876,-187.370699570566,292.24183273895505
1041970,-332.7099512089324,-188.37357417328377,292.54904119612297
1041971,-333.31980603065836,-187.48482396666392,293.09453969877444
1041972,-333.86605477336514,-187.19045909541327,292.6569919409081
1041973,-333.39442965224504,-187.73989752587494,292.62657861649916
1041974,-333.9310021031235,-187.77627576817508,292.5323868817535
1041975,-333.9139055190067,-187.31443780578385,292.462387810816
1041976,-334.09284358358974,-186.0396889863148,292.846328224977
1041977,-333.7660715638441,-185.9238677992174,292.9133807194805
1041978,-333.7937634568603,-185.9384857361431,292.9218160129
1041979,-333.9735464163001,-185.79444271782737,293.220704088114
1041980,-334.2670334457013,-185.90349943230743,293.0419833250589
1041981,-334.5562925141459,-185.74742870499043,293.26044665085584
1041982,-335.01873360236175,-186.2713105378769,293.6783478959903
1041983,-333.8747191573805,-186.05349715066419,293.52448970595896
1041984,-334.85848115139163,-186.51607904261837,292.70577307244884
1041985,-333.90733335870414,-186.19344382393936,293.28516036376413
1041986,-334.1905799698552,-186.23368748574222,292.9946252671796
1041987,-334.5126068273728,-186.20765834366162,293.3246530754591
1041988,-333.6460787739287,-186.49944125212136,293.84110969866623
1041989,-333.57451938585166,-186.0443842473924,294.27993653603306
1041990,-333.793628574818,-185.592269761682,294.5287099145725
1041991,-334.20726654391206,-184.3154060771494,294.4688741072416
1041992,-333.1895961255435,-184.13141437663523,294.6160161623231
1041993,-333.6245357306757,-184.87766759824945,294.4406336480171
1041994,-333.6967681788984,-184.77019927966114,294.1169705541063
1041995,-334.2573370667233,-184.46165966588484,294.1433008427031
1041996,-334.38792938006867,-184.1153680540331,293.9273538855686
1041997,-334.53712812032876,-183.76546342764806,293.58871486970855
1041998,-334.9302281551399,-184.27681117869966,293.41314075040293
1041999,-334.64620134864236,-183.690337081644,293.5809863951422
