sample,gyro_x,gyro_y,gyro_z
1025500,-286.0867342237939,-162.47216244571626,276.1111994571992
1025501,-285.37817863203003,-162.82486417933407,275.36402378144106
1025502,-284.9907844701676,-162.6305468639952,274.8147093385755
1025503,-285.03423825050197,-162.72042721737375,275.11118108050766
1025504,-284.6990603218182,-162.68590719905131,275.19768428189394
1025505,-285.2221871211928,-162.93521153702721,275.3936730806522
1025506,-285.04030567148584,-162.93206977638053,276.1967742507874
1025507,-284.4516132331634,-161.89505684413837,276.38725796392924
1025508,-285.24707671041534,-162.1825297717526,276.6280271073393
1025509,-284.72349804568825,-162.36479061827754,275.9778263471713
1025510,-283.4486614105809,-162.85355785605327,276.555437529067
1025511,-283.5727971936383,-162.3286312794161,276.8019772219367
1025512,-283.7377349804093,-161.96326228935723,276.90360698416805
1025513,-283.6002542572888,-162.00595677334633,276.5180149460968
1025514,-284.0899873995166,-162.52800107132788,276.44122334540526
1025515,-284.48889100361157,-162.81644698638627,276.81544664033055
1025516,-284.6290792613458,-163.05920540789805,276.92580366078863
1025517,-283.9247457800046,-163.61573789093643,276.93266568077354
1025518,-283.72726674236685,-164.44951451389284,276.0840801136467
1025519,-283.36575888922056,-163.64848532553947,275.87893515212374
1025520,-283.32473289292494,-163.88849541244306,275.7322494936922
1025521,-282.47067221347135,-163.93872020482283,276.4365186683238
1025522,-283.1679850209273,-163.94518623070707,276.5387062257622
1025523,-283.765870270973,-164.12969821077687,275.98612027529475
1025524,-284.13916170812195,-163.88140226076914,276.4661873268311
1025525,-283.95588818580245,-164.4343184502087,276.8390394375354
1025526,-283.9778194644575,-164.79277027470326,276.2819977862849
1025527,-284.1562326537809,-164.4945941689861,276.02417308781344
1025528,-283.87077897017645,-164.37688904866008,276.11152651165725
1025529,-284.2217083603035,-164.46103445710142,275.7533663560807
1025530,-283.5726060883428,-164.27953459555567,276.23629682195593
1025531,-283.2180301966574,-164.10664846105132,275.6382111430443
1025532,-283.3094820897644,-163.9090623567817,275.5315287550165
1025533,-284.0710472737203,-164.2027824405307,276.439937041446
1025534,-283.3035752718617,-163.721658232265,276.47977395623553
1025535,-282.8608378372487,-163.8091435171545,277.47306593166144
1025536,-282.6844513541701,-164.6226945121177,277.02754612226926
1025537,-282.9186574042899,-165.1371569978507,277.19141233118654
1025538,-283.2240954786501,-165.58709206030954,276.8889919244538
1025539,-282.8149824724332,-165.3979343743467,277.14144454021124
1025540,-281.79775851993014,-164.60064545628117,276.8319661868126
1025541,-281.80824555959083,-164.47702918186178,276.800365949416
1025542,-281.766512840391,-163.48179454102345,277.26532137416206
1025543,-281.77204650540637,-164.01013559762916,277.21932392700484
1025544,-282.16663291549264,-164.6284953009848,276.9640547740402
1025545,-282.46307887656866,-164.71091499082056,277.06320716560816
1025546,-282.3331449022635,-164.98270411949318,276.8925515671023
1025547,-282.38723306492193,-165.585706000557,277.0861460666098
1025548,-282.8959326483406,-164.4594401596193,276.2722166737689
1025549,-282.9636115735959,-165.09364331445505,275.6787895804198
1025550,-282.70515983756513,-164.82000885652343,275.72560617909306
1025551,-282.354370597764,-164.5350253801853,276.86946375124523
1025552,-283.152276216419,-164.46871754245836,276.5985054982744
1025553,-282.80374165735753,-164.46421891864694,277.0571813206274
1025554,-282.384497858274,-164.32177239732798,277.40279977547925
1025555,-283.0439121198738,-164.08183357625612,276.8495811029435
1025556,-282.8208567656191,-163.95139759248238,277.89967156194143
1025557,-282.19942781761245,-163.85153925972588,278.15301596062955
1025558,-281.6231990946284,-163.25793775082744,277.6977943583594
1025559,-281.718854696282,-163.24995893491771,278.10195729911953
1025560,-281.93882872328214,-164.04027057123633,277.8552736058415
1025561,-282.35077112799723,-164.71871489501362,278.6514617842284
1025562,-283.22835289618655,-165.11219469433604,280.04881510342364
1025563,-283.59670133772175,-165.30833898401693,280.4403199817881
1025564,-283.58740246572177,-165.69872026676666,280.8185112696717
1025565,-283.74975544315134,-165.95014658315688,280.86020803605976
1025566,-283.30516650817395,-166.3886158951927,281.11380301946224
1025567,-284.1799468504971,-166.44876903702917,282.09796231020783
1025568,-283.7879321432342,-166.84906175865115,283.22048251302584
1025569,-284.3804628670445,-166.11046264393562,282.170774279003
1025570,-283.9461200178767,-166.39997930278307,282.90846040526435
1025571,-284.0464067925596,-167.13560231166818,283.11230146341535
1025572,-284.36705421589573,-167.66342367625555,283.20213854251136
1025573,-284.02337830249354,-166.39356518538372,283.26271277704177
1025574,-284.06595576516077,-166.6529555336301,283.01668699400926
1025575,-284.4409026363794,-166.6634173968456,283.0002129605154
1025576,-283.6800828708718,-166.85517414378663,282.8507643801199
1025577,-283.23950888337595,-166.5211098100273,282.34492900798193
1025578,-283.99348779998877,-166.71062567597556,282.7965981115763
1025579,-282.9947363523957,-166.8858518621454,283.0344831784717
1025580,-283.29474390309576,-167.2035704100187,283.2058856348568
1025581,-283.35873916875636,-167.81696251683704,284.3049888891395
1025582,-283.7660663227275,-167.412386839408,283.8876303439737
1025583,-283.07214476205496,-167.44045169363326,283.1167780734455
1025584,-283.24220021331456,-166.93430685305938,282.7720114144662
1025585,-283.5146352889164,-167.26861273493193,282.68377867512714
1025586,-283.4420778112959,-167.76425658094593,283.13719895823976
1025587,-283.3461210649154,-167.58411588207795,283.0408860291182
1025588,-283.2413538499054,-167.54188983943996,282.99836026392586
1025589,-283.9263230031771,-167.16333624503673,282.93474243302205
1025590,-284.126087540551,-167.598409764449,283.3024618952397
1025591,-285.1617836200289,-167.8857485891778,283.8459940421782
1025592,-285.4949746335402,-168.10156661161932,283.5527509682195
1025593,-284.779660080151,-167.86920980328995,283.5606422475548
1025594,-285.4887786687652,-168.759069118937,283.75824513672615
1025595,-285.7938746407634,-168.4868336150656,283.0941379980108
1025596,-285.94519981275084,-168.72585081175828,283.30484752904295
1025597,-285.452971982197,-169.0364322578293,284.33475615642055
1025598,-285.22805833143326,-168.76369663222383,285.24286757286126
1025599,-286.3588496007508,-168.62497734655315,285.0100050851359
1025600,-286.2739850839175,-169.17385732681169,284.6993024481666
1025601,-285.81734847084186,-169.2219222254115,285.1337800962011
1025602,-285.17023288270786,-169.24264050390005,285.4145020051702
1025603,-285.19065715437205,-169.82317384340794,285.2448881670998
1025604,-284.68021981430167,-169.49919500268544,284.9124728241965
1025605,-284.47106102532445,-169.78448386652727,285.8081449322332
1025606,-285.1612778166085,-169.40361503313423,286.80776971907176
1025607,-285.0167295468817,-169.62142994373943,287.3502958247685
1025608,-285.1427436622152,-169.57239943094368,287.3072743107829
1025609,-284.998084366916,-168.8205643937282,287.42657577035806
1025610,-285.24083993339036,-168.28571958626935,286.60126490509515
1025611,-285.45588018079013,-168.3922146036194,287.229782252282
1025612,-286.1519408598219,-168.97533719498534,285.9138636898489
1025613,-285.59643527321606,-169.14647017178544,286.0733749481229
1025614,-284.16957070938736,-168.2316106929666,285.22383906039585
1025615,-283.8527449952278,-168.69228844414252,285.2289647850171
1025616,-283.6712146449022,-168.22963982054048,284.6072286901833
1025617,-283.62439920322595,-168.32318369798085,285.0418518302418
1025618,-283.017790736754,-167.88230031341288,284.5363423596547
1025619,-282.52057597806106,-168.66485720406854,284.69799516812844
1025620,-282.01315116318494,-168.0269835391689,284.8526286260206
1025621,-281.968583112689,-167.69312910469344,284.2058885438098
1025622,-282.24066105782697,-167.61273915056378,284.8493949325347
1025623,-283.0748910697827,-167.55296855831205,284.68400375649856
1025624,-282.53548509239505,-167.13464368265048,284.08396366170075
1025625,-281.8894125370035,-167.36912857783062,284.08945790118224
1025626,-281.33997529206465,-166.4828355389949,283.7810042002813
1025627,-281.43853849133507,-166.60069180571656,284.2888226604169
1025628,-282.23758172281384,-167.50585402394967,283.57321633211535
1025629,-283.165306152783,-167.9809007171593,283.04442468620516
1025630,-282.9048205995993,-167.99290229332198,282.59559329367886
1025631,-282.0444281080379,-167.9458237800748,282.83733040384135
1025632,-282.32377911669425,-167.3274750586814,283.10376362758126
1025633,-282.51476149703234,-167.8207146668548,282.97523798906593
1025634,-281.73872090648086,-168.99556763928896,282.6863737101965
1025635,-281.1561926648477,-169.23210160922196,282.85722623687053
1025636,-281.61781264962644,-169.30736845755956,282.7240150920132
1025637,-281.77633154478787,-168.7413173863327,281.8559475665341
1025638,-282.14822200259636,-168.06927724907237,282.63265286930215
1025639,-282.38225726248226,-167.49149953722016,282.51276455878315
1025640,-282.22391300872954,-167.38628002108834,283.69083991002486
1025641,-282.1075262568597,-166.90605104871756,284.2343928806493
1025642,-281.5797512579811,-167.25047039451155,285.1855512614535
1025643,-281.9280984363114,-166.95073097137885,286.1150069633882
1025644,-282.3356176720936,-166.91107818643565,285.631409272799
1025645,-281.98391359219,-166.5327469244254,285.32047574043065
1025646,-282.37949830518556,-166.47103618243517,285.4114221732491
1025647,-281.438621443536,-166.51645732626403,285.2549655064183
1025648,-281.4943524667616,-165.76523955387245,285.47145343203897
1025649,-282.6137529339473,-165.8554941614573,285.2639284400313
1025650,-282.7518746458239,-165.82162002913444,285.6139713965464
1025651,-283.23542999137817,-165.75631938928908,285.5546606046884
1025652,-283.6455414912434,-165.44496238969268,285.09004511562614
1025653,-283.49388594948505,-165.23270356581924,284.99507058326304
1025654,-282.61857208817156,-165.38476492905602,285.26199345448987
1025655,-281.8137060984876,-165.29620268048393,285.43976849364134
1025656,-281.9336446544101,-164.94016661395963,285.37510014720186
1025657,-282.0747614209405,-165.17320659720033,285.2523203032136
1025658,-281.6172928421883,-165.37069323242554,285.0251829028257
1025659,-282.11580741018787,-166.0131953171428,284.46364750437203
1025660,-282.11311809862394,-166.5980131635231,284.4579877952354
1025661,-280.9812999219466,-167.64057121099893,284.31844942426113
1025662,-280.46344504961843,-167.64027986104475,283.68714628927756
1025663,-280.0064998517115,-167.31929698369862,284.0268139623788
1025664,-280.2902035280804,-166.70696980333778,283.6729364924276
1025665,-280.3478934671016,-166.8335691248704,283.8958761968464
1025666,-281.0746286832388,-166.09930142163165,283.3167176651009
1025667,-281.61323616641386,-166.57596444138363,282.884330152701
1025668,-281.2339080002622,-166.068482963314,282.6176013121696
1025669,-281.0044136268894,-165.289448852892,283.1575757522315
1025670,-281.43834918934385,-164.18758164295977,282.6284579863105
1025671,-281.80811718588336,-164.68332171133525,283.5725292412335
1025672,-281.7368904826665,-165.03997479248383,283.73460644947755
1025673,-281.6695681460922,-165.28009833272915,283.8574276184264
1025674,-281.02390963867606,-165.50314463766532,283.66708845237235
1025675,-280.98798659951757,-166.0377223104856,283.933494251811
1025676,-281.1388657587208,-166.08750825062106,283.28667772129523
1025677,-281.6657512044446,-165.8988681661935,283.1194878732392
1025678,-281.25202619486123,-165.5814543297546,283.38882819739825
1025679,-280.91917837646497,-165.32297926252448,283.88972905793213
1025680,-280.4008385723627,-165.78231708023316,284.2970865287686
1025681,-281.05968605339433,-165.61962220801456,284.16664878884575
1025682,-280.9770805674758,-164.57939273988322,284.18758913263724
1025683,-280.4238103489414,-164.92878867500698,283.5399717582843
1025684,-281.0715487858264,-165.19979834129455,283.7548482551736
1025685,-280.9283052456682,-165.20649437455228,284.21068600778824
1025686,-281.45479919981034,-165.4416933954436,284.84484867726013
1025687,-280.82710320038194,-165.6804863686741,284.52921115565357
1025688,-281.7052975418987,-165.5057543921565,284.318079479084
1025689,-282.08399527849554,-165.60682201720155,284.19128759387746
1025690,-281.7248310059143,-165.51248400683355,284.5027892846439
1025691,-281.993997008422,-165.88522401195212,284.49782681565574
1025692,-282.4424624679609,-165.06421181415345,285.3276411099021
1025693,-283.2429274924159,-165.38059341399077,285.71684309031883
1025694,-283.2230961228633,-164.53753015090402,285.55408140135063
1025695,-282.29977827350524,-164.45096742404618,285.83238491898567
1025696,-281.6326228060655,-164.25010540314136,287.16290868700435
1025697,-281.5990049444874,-164.37614901004414,286.7773358245691
1025698,-282.4609997858661,-164.15021103733142,286.53949290452556
1025699,-282.5490686074587,-163.6574743357746,286.4362302699823
1025700,-282.98436160123305,-162.86853520186625,285.31331914003215
1025701,-283.0561062327303,-163.0062553406621,285.78062896785514
1025702,-283.5521221805748,-162.8008437194859,285.48947724423215
1025703,-284.0242658867533,-162.6518996419413,285.89749297593477
1025704,-284.1715808881752,-161.91476932879152,286.14152335415065
1025705,-284.4833130090133,-161.63410738124452,286.41821970687386
1025706,-283.7347888301961,-160.97797009242095,286.46300229682123
1025707,-283.4252654702244,-160.3468130564545,286.7027137829964
1025708,-283.73130297988945,-160.55225404970668,286.866816656869
1025709,-283.3175168573952,-160.8829374740169,286.655370038081
1025710,-283.78333042549593,-160.6115545184592,286.7696051333368
1025711,-283.5610269082942,-160.00089335661974,286.836016350677
1025712,-283.92423700939764,-159.64537966694243,287.26180453493856
1025713,-285.52865776826036,-159.20119793066138,287.05903162164634
1025714,-285.4830121383376,-158.41864565231123,287.87516727905046
1025715,-285.04938619037443,-158.37619920297834,288.48615082618977
1025716,-283.66934003451695,-157.94735122812187,288.98844081376575
1025717,-284.07095731660155,-158.44066516342335,289.9433699687803
1025718,-284.5996666825333,-158.30145523384454,290.3692811053039
1025719,-284.7890833956552,-158.4167438810209,291.15485095716974
1025720,-284.69482763689325,-158.6034049477612,291.73287292521053
1025721,-283.4666671831521,-158.29488821287813,292.46580938737816
1025722,-283.68098356126535,-157.77032028356783,292.4009265648493
1025723,-283.77388979299485,-157.84427636542742,292.69737008482355
1025724,-284.51020758453126,-158.70306681338394,293.21279766148115
1025725,-285.3752179846523,-159.17095625506013,292.43158321086787
1025726,-285.72581211054336,-159.49761743189643,291.41708162082716
1025727,-286.1307331242725,-158.799092607982,291.2855404362463
1025728,-285.8285535756365,-159.6013726512167,291.7451929683727
1025729,-287.16389074321114,-159.76118967894521,291.0529302910829
1025730,-286.9214505956853,-160.53018471758534,290.8813507604282
1025731,-286.72766500368897,-160.28888135741505,291.03457537322464
1025732,-287.1638396472594,-159.62776593474084,291.0558981904845
1025733,-286.9329867135803,-159.61265774359498,291.1138406281108
1025734,-286.33645744637994,-159.73977577992324,290.300563082173
1025735,-285.7309263775956,-159.96953229194068,289.5045685730638
1025736,-285.77311641751214,-160.94566794683192,289.4617554586425
1025737,-286.14048992786627,-160.53664443208044,289.245959111946
1025738,-285.71311652811835,-160.298921497569,288.63689869771656
1025739,-286.0949777545519,-160.38572238501814,287.66326958056186
1025740,-285.3948360424261,-160.549397753229,288.2751537334776
1025741,-285.4692972771747,-161.30393325704432,288.66874379491287
1025742,-285.57752262594653,-161.0522488982236,288.6134908695629
1025743,-284.8928452732826,-161.15889870477739,289.90735034079916
1025744,-284.36910004109507,-161.71189216727606,289.9387800123002
1025745,-284.3049620434115,-162.90192676638122,289.70246798740123
1025746,-283.6705410016005,-162.9658802229475,289.5677243044475
1025747,-283.1138010601417,-163.01115070503965,290.00168204192414
1025748,-283.43601892474646,-162.94201722492514,289.2527755592602
1025749,-283.47857370800864,-163.32870067834597,289.36171761909617
1025750,-283.1835737421708,-164.21324925653215,289.538124862463
1025751,-283.1113634209563,-163.25865985647,288.50224850754904
1025752,-282.42235469487963,-163.5639565379942,287.7490209948145
1025753,-281.50832703502704,-163.16068302602764,286.6915128992388
1025754,-281.00298500071506,-164.01906528788038,286.93177418732
1025755,-281.5654743250742,-164.25416297187215,286.57239666527295
1025756,-281.16277327816823,-165.14529498417147,286.94383623049754
1025757,-280.9145688450636,-164.54085799321334,286.972769830857
1025758,-280.7114844778561,-163.761560152269,286.37560610882355
1025759,-280.6070118182633,-164.28416560082738,285.8921344547089
1025760,-280.6046238359664,-163.6119832202453,285.9040179830048
1025761,-281.370656451529,-164.0178130815176,285.8210868712238
1025762,-281.4956024053834,-164.88368719514727,285.6631170630434
1025763,-280.53491673025786,-165.53977335072943,286.6946044362962
1025764,-280.3280482360564,-165.3395554582807,286.9668834580635
1025765,-280.58733529128983,-164.76680829546288,287.23106445831564
1025766,-280.3395434754935,-164.98355193705075,287.80464160276586
1025767,-280.75228598576564,-165.69713404648124,287.99978016595475
1025768,-280.13023558340404,-166.43206988343456,287.62244321546683
1025769,-280.08332322316704,-166.5131398279874,287.0101400907592
1025770,-280.74744330225633,-167.4079170882911,287.0283780729378
1025771,-280.7332719005765,-167.6465477048003,287.3240556319482
1025772,-280.4858912544162,-168.80202200748778,287.56740788700296
1025773,-280.51803282453534,-168.76323103184973,287.39768891065137
1025774,-280.44359299361753,-169.9560553713531,286.65383016721836
1025775,-280.59961690898433,-170.10261771652605,287.22327833561593
1025776,-280.93800489252845,-169.96524916475695,286.6190028489767
1025777,-280.7953421374906,-170.9408972924597,287.4604006935448
1025778,-280.1581037560832,-170.15369093071007,288.02259871680553
1025779,-280.75689126071046,-170.734418854703,288.77498373256003
1025780,-280.02694804528056,-171.90131536912736,288.34610595333
1025781,-280.11193484300003,-171.74847708730587,287.47823147029857
1025782,-280.8705227747843,-171.7741676138873,287.6423538235506
1025783,-281.1885346319652,-171.69274980922773,287.4142641367657
1025784,-281.5638538819999,-171.7371804165061,287.2178763445716
1025785,-280.9959889846143,-171.0881935087488,286.8767174184731
1025786,-281.4386714477067,-171.80175791371403,286.0162697550318
1025787,-281.7243974623139,-171.32793843954954,286.0621091553931
1025788,-282.0154043479284,-171.29564213084538,287.1999463167115
1025789,-282.32220800936705,-171.32782579341156,287.68510908575666
1025790,-281.77580865907123,-171.33369242526112,287.60427424021145
1025791,-282.6491085721369,-171.37670545948905,288.0243146350543
1025792,-281.8926843062376,-172.07208781465005,288.12533454846704
1025793,-281.3987285628184,-172.7224267136691,287.47583305018946
1025794,-281.0133614378819,-172.90154003565218,286.97260960987904
1025795,-281.2990487898059,-173.3326736520016,286.98563756494286
1025796,-280.95411998923475,-173.65445138971427,287.53078930097325
1025797,-280.4703896116588,-173.03375130137266,287.3186229402492
1025798,-280.6452123442747,-173.0032174237469,287.28178377303556
1025799,-280.0458283419538,-172.88552600440747,287.68202340659036
1025800,-279.1352239491231,-172.86403481651178,287.81867913601695
1025801,-279.1852011263277,-172.82686566152563,288.4963626456458
1025802,-278.39819410633186,-174.14862407935533,287.28412438524833
1025803,-278.2043040763155,-174.28181262788445,287.67707308866005
1025804,-277.9370442128801,-174.3924876845199,287.07754323707917
1025805,-277.5839334298742,-173.6851580930906,285.9727203023557
1025806,-277.75982421164707,-173.2696978726706,285.90458003773045
1025807,-278.0404538835792,-173.2822382635526,285.4544940662447
1025808,-278.00500368141644,-174.45460609735395,286.0468847263159
1025809,-278.4671769859437,-174.19127900630974,286.3231805158025
1025810,-278.3235430533118,-174.01041257703477,285.7896675232929
1025811,-278.1435759129435,-174.15681725437125,285.6664928670644
1025812,-278.7287477329963,-174.46198214413118,285.7205822742026
1025813,-278.4212715952668,-174.69009948314937,286.06782929536894
1025814,-278.4870217404869,-173.77862008521083,285.9526156895225
1025815,-279.2785827139394,-173.11862047006548,285.6199306059779
1025816,-279.35520626150236,-173.01535832976535,285.1446461422304
1025817,-279.28573605583966,-173.32272191076856,285.2186202961047
1025818,-278.8311693801853,-173.88194058398577,285.37846279186846
1025819,-278.45822574497504,-174.31627927106356,285.1765116118594
1025820,-278.3810326942741,-175.0936696832904,284.9793179640441
1025821,-278.1654394674469,-175.71428180842898,285.4497900282812
1025822,-278.2294376920828,-176.20337162035713,285.94624662545135
1025823,-278.58512383826604,-175.49989165271955,286.0234213023174
1025824,-279.58192287426755,-174.38576275924027,285.90751426946343
1025825,-279.4831567431322,-173.9662350698749,285.3607149495204
1025826,-279.8757635505399,-174.9146217619889,285.92817493238306
1025827,-279.626786800566,-175.10629972763152,285.741730585228
1025828,-279.89047557734347,-175.1284405234664,285.211079858229
1025829,-280.3175678657107,-175.4030512582642,284.9070438673887
1025830,-279.816822105433,-175.73751056941688,284.73023239111967
1025831,-280.4623268113351,-175.43726690449984,285.94307370991805
1025832,-280.8082813948394,-175.3235911087322,285.7624667845264
1025833,-281.2534672142824,-174.866209136951,286.3404840269854
1025834,-281.5037470835832,-174.8095644186333,286.16181868848236
1025835,-281.6259301948896,-175.8746982509655,286.47287301405146
1025836,-282.9482805601026,-176.03079693002383,286.06181686413595
1025837,-283.51171893005574,-176.51328689478947,285.9336648588145
1025838,-282.8385232119821,-177.31154087476864,286.13064937899134
1025839,-283.03887354157865,-176.53164883179792,285.64513885441335
1025840,-282.9752545141697,-176.84277673381894,286.35204815536804
1025841,-282.280568304137,-176.615033816912,285.68910283024286
1025842,-283.0128215340195,-176.59057166078492,284.49815038758715
1025843,-282.9796655042233,-176.40549664375695,284.19195613499744
1025844,-282.9701733171153,-176.3011135877589,284.12622896643495
1025845,-283.3011857856448,-175.34905846500587,284.2185401442111
1025846,-283.59811626404945,-175.6399634695391,283.9503245266178
1025847,-283.4290125644546,-176.53994486917608,284.4029984187084
1025848,-283.8103186618182,-176.7284761830943,283.5934985454465
1025849,-284.252044335903,-176.02959841500834,283.84741032159764
1025850,-283.9428328591454,-176.17743201527136,283.6121189494939
1025851,-283.57319517863,-176.0165379434065,283.62111589083304
1025852,-284.12132445652026,-175.70791913398503,283.5791135571124
1025853,-283.37597123799645,-175.32611494649422,283.4891684814622
1025854,-283.06508538494757,-175.3875353259163,283.85546745971385
1025855,-283.11663025217865,-175.0742243749042,284.3706228882341
1025856,-283.1902166119609,-175.62852189014285,285.32079329935124
1025857,-283.67174651902775,-175.37247422998954,285.79999420273634
1025858,-282.7880577578727,-175.23286888140925,285.67057750458775
1025859,-283.13841292311844,-175.2929151403074,285.220328450957
1025860,-283.34674756531064,-174.36548795554182,284.48232520074436
1025861,-282.70437035349033,-174.09431734777348,284.93695230887135
1025862,-283.46416725978713,-174.04474824475227,284.72327988625074
1025863,-284.3385908734372,-174.12495715751234,284.52522388644445
1025864,-284.3406804983142,-173.35060968493184,284.4979642988146
1025865,-284.9411268595412,-172.62555262786867,283.80501725219267
1025866,-285.2741589863654,-173.17563870971298,283.4636553021604
1025867,-284.7746563483029,-173.55709737915123,283.51564469297057
1025868,-284.9557744074378,-172.77725600350044,283.78121005953795
1025869,-285.38259487809,-172.51145429304484,284.0335095390735
1025870,-285.3340725446824,-171.65606626085045,283.8790115082074
1025871,-285.65826312425884,-171.6909908805215,283.64675612950174
1025872,-287.2263909243001,-171.74860247389034,284.23209834602983
1025873,-287.55114915744645,-171.82037895829365,284.6218012391492
1025874,-288.06713714794097,-171.6543712863428,284.5871368704949
1025875,-287.06935677618884,-170.32319613050169,285.61952155350497
1025876,-287.4505078639538,-171.44489778174344,285.60822947450487
1025877,-288.710160885435,-170.87317242496366,285.40617396234177
1025878,-288.6742853460623,-171.04728026131065,285.48338273183776
1025879,-288.48582875597776,-171.6660994783319,285.9342027555803
1025880,-287.58302074437086,-171.77737632423984,285.82607270746894
1025881,-287.1640033954468,-171.86787112483384,286.2199797792817
1025882,-287.09956382679195,-173.1717737561056,286.77497977632936
1025883,-287.30898837498955,-173.4122758015955,285.7259146611119
1025884,-287.5447110742074,-173.15688243464655,285.42353838438817
1025885,-287.7165047375519,-172.7653475270954,285.1742917908918
1025886,-288.298183336971,-172.21487139632725,285.23929389782563
1025887,-288.44567955613127,-171.47968900966774,286.41174364971187
1025888,-288.2248117895148,-170.47779603400082,286.08008436883216
1025889,-288.89713900142027,-170.68722729901378,286.02186438161135
1025890,-289.32515919958104,-170.99083939584938,286.413838862111
1025891,-289.5269647265234,-170.6091232323042,285.9473323471518
1025892,-289.74196533503414,-169.5797301036453,285.4561965325976
1025893,-289.6390123865579,-169.14981146380438,285.86703944427825
1025894,-290.51954418133926,-169.166214340641,285.0134674647046
1025895,-289.8280837629555,-168.70077421306272,285.58509928599005
1025896,-290.1137229119331,-168.3289915021646,285.0146909762422
1025897,-289.9244982970205,-168.65693713791833,284.7421358613973
1025898,-289.404547578056,-167.4432474220865,285.17667696193814
1025899,-289.05087760205214,-167.43144996161658,284.29509692528404
1025900,-289.64260913146984,-167.30709523670376,284.51338099757186
1025901,-289.87721445462597,-166.62468546527677,284.729251728422
1025902,-289.9729681115067,-167.3003988666264,285.2504359700078
1025903,-289.7983253430867,-168.2077024863063,285.4865193116706
1025904,-289.74650879005816,-168.54700825040305,285.2577653833816
1025905,-288.6643114083037,-167.74125703926302,284.7279115101043
1025906,-289.11419090532104,-168.39735521687808,285.2708973081857
1025907,-289.30633263458685,-168.06044819615244,286.1186616578579
1025908,-289.11907065016254,-167.6298336468701,286.78119057983656
1025909,-288.84970832201714,-167.83763520226236,286.5011929824741
1025910,-288.6643166925764,-168.0621576335788,286.39201041220787
1025911,-288.57088733691086,-167.86713247257765,285.0277282534775
1025912,-286.9260164424506,-168.14320770089503,284.7868211585036
1025913,-286.8993192164421,-168.8810671253631,284.4571777453894
1025914,-285.7471723178281,-167.99665447012083,284.0756718557691
1025915,-286.16852642955826,-167.4898744872097,284.71405341570227
1025916,-286.657128424561,-167.68442910608923,284.13470690027737
1025917,-286.7881287858866,-167.79678868582366,283.46756235288643
1025918,-286.4332765343723,-167.42954275156714,283.08397189903985
1025919,-286.1359747661329,-169.08471956408164,283.316789640347
1025920,-286.1939392986649,-169.53092974738934,282.92589081126454
1025921,-287.16997527947365,-169.70417793116212,282.4327297259813
1025922,-287.9589601509773,-169.15519274231605,283.00037901812783
1025923,-288.42329929432844,-168.77540000023373,282.3319363484959
1025924,-288.21631143224795,-168.86172046500127,282.1814004738431
1025925,-288.12174941802596,-169.436912529105,281.1800847838013
1025926,-287.8720506950978,-168.93713110480172,281.87143201863125
1025927,-287.3226951651983,-169.33148918353737,281.5815499664697
1025928,-287.791167060639,-168.96375188119413,282.33451191180814
1025929,-287.7304267337577,-168.59941455065527,282.9599951409024
1025930,-287.3252431323256,-168.79797318726256,282.5336447670751
1025931,-287.6797355786337,-169.2746669738009,282.9789076726887
1025932,-287.4741465684307,-169.70965219773242,283.3535773043131
1025933,-287.7197026561567,-169.84159684003995,283.4678977026221
1025934,-287.22980421276657,-170.3236277415524,282.776417067035
1025935,-287.73429512091764,-169.22100813699936,283.51402349256415
1025936,-286.92771720033824,-169.01271273722273,282.61239210683885
1025937,-286.89323208169793,-169.85640205422004,282.7093559108121
1025938,-287.8765037941427,-169.09592578653505,283.13425038548525
1025939,-288.2961939508637,-169.02136878395223,282.9190615119871
1025940,-287.93084890676937,-168.14826497008252,283.0593415637049
1025941,-288.0599341614917,-168.04967892418702,283.99124779401177
1025942,-287.55029103461266,-167.8526837867851,283.5079934428204
1025943,-287.5518953889164,-167.796683975865,283.5227559875134
1025944,-287.1045746353296,-167.2371700016771,284.62332034476134
1025945,-287.19889696403095,-167.14618759162855,284.5316086613876
1025946,-287.42547179053383,-167.36595031908445,284.8571981142207
1025947,-288.086619734337,-167.5338334930836,284.2049162412508
1025948,-288.1720866508012,-167.63637468085778,284.3910536461036
1025949,-288.61240283601364,-167.67740915363268,284.2749191201772
1025950,-287.6266722345483,-167.32360729055412,284.90597405099794
1025951,-287.0835229039928,-167.58335868412755,285.4891441682622
1025952,-287.2060654130296,-166.89011843539313,286.67569725094313
1025953,-286.90815115062844,-167.4090119146162,286.91873534801096
1025954,-286.9925658514385,-166.78831768593184,286.3214309406175
1025955,-286.81856681947073,-167.21912732464637,286.39719807536073
1025956,-285.92148367065755,-167.56426765024585,286.9584186211823
1025957,-286.40957733621786,-167.5267800305704,287.1357492505867
1025958,-286.8701780223415,-167.5497409537398,287.1875854813527
1025959,-287.39876979743656,-168.15595956995713,286.796832959677
1025960,-287.7004406471219,-168.14262426569115,287.0238502904878
1025961,-287.46577200845337,-168.55679068626787,286.2626868412156
1025962,-287.1784548438357,-169.2006106831441,285.61027745727034
1025963,-287.4436644538151,-169.43988576521375,285.73834409715266
1025964,-287.0208526617903,-169.81171701692267,285.49672753677794
1025965,-286.66001585536105,-168.92437959449185,285.09280620908646
1025966,-286.1976092778456,-168.9478813886281,284.9659629370528
1025967,-285.32908103053836,-169.31656175004105,283.92886662210765
1025968,-286.16950113075137,-169.3255335382799,284.0056323260486
1025969,-286.4394007605671,-169.67859369241282,284.424660357574
1025970,-286.42410599740003,-169.55646413075294,284.8215069371058
1025971,-286.0656363235696,-170.06090024829135,285.0724822472785
1025972,-285.2191116903174,-169.73351710802245,285.2611794924663
1025973,-285.24919024934457,-169.34752171999952,285.2572410015505
1025974,-286.1864726703819,-169.07891181839963,285.1812826879649
1025975,-285.229987895651,-169.17073165434437,284.90095545203866
1025976,-284.65199806142493,-169.24354960284913,286.05685415617404
1025977,-283.71004846748485,-168.8690241758053,286.1056102072901
1025978,-283.931028156185,-169.10436913279676,285.9680525354514
1025979,-283.9351043771259,-168.59686872562912,285.1524581957889
1025980,-285.1756692624475,-168.65156134315524,285.1799189290184
1025981,-285.3308105030793,-167.8603764477533,284.9868742109739
1025982,-285.21781678546614,-168.46783391085006,284.53280208787754
1025983,-285.7686736412053,-168.50265610152752,284.70876544092255
1025984,-285.95252915185006,-168.65678650065718,284.9540577818504
1025985,-286.4049779980795,-168.74234261758605,285.2087832664062
1025986,-286.3426884501218,-168.78191554832236,285.0476423794779
1025987,-286.54970424573366,-168.8215540359944,285.3632512898899
1025988,-286.18096972112704,-168.62301863596653,285.3060154613881
1025989,-285.5839522699667,-168.88757347368266,285.6669500160349
1025990,-285.86475458522335,-168.54204531801255,285.3022837870012
1025991,-286.32703700467414,-168.07717432092494,285.243047203452
1025992,-286.1471605633494,-168.74870644557836,285.0986096982637
1025993,-286.5040559153547,-168.84401200590594,285.24156142277496
1025994,-286.5791245510157,-168.95290416073854,285.3194673272295
1025995,-287.2852014224061,-169.85517635272643,286.33648682636687
1025996,-287.0516555302416,-169.34358039214456,287.76001897715116
1025997,-287.5261519250532,-170.23112209240227,287.9910971842975
1025998,-287.0038183651582,-170.98903413926928,288.21814132109074
1025999,-287.38910994231685,-170.7966806177869,288.06030782729795
