sample,gyro_x,gyro_y,gyro_z
1028000,-284.73855179866524,-157.04199551510627,298.6684043587005
1028001,-284.55296502236746,-156.81012313092072,298.99903125222824
1028002,-284.8948949248714,-156.39639462820344,298.8063001794281
1028003,-285.0246254514605,-156.40143100022854,298.06433285884157
1028004,-286.01249965142426,-156.70529729475064,298.65154778024623
1028005,-286.1816416782672,-157.2545570592021,298.74126252094214
1028006,-286.17482840035075,-156.41873678199173,299.2221278830115
1028007,-285.2840091759271,-156.66906617790409,299.5937842183092
1028008,-285.8018488813427,-156.2087858691369,299.5673920924265
1028009,-285.2716421019744,-155.83929611803902,299.76132485377224
1028010,-284.93871575692407,-155.45435504134696,298.9284969111948
1028011,-284.6890568880641,-155.24921015437735,298.6726710315163
1028012,-284.60329832423236,-154.57155149853895,298.5509216061591
1028013,-284.41099900776334,-154.13547411420964,298.6115257477951
1028014,-284.16588718684903,-154.24052798712128,298.458828116741
1028015,-284.9241555317477,-153.89661616748302,298.4526391238471
1028016,-284.706906068913,-154.07868778745822,299.2068730346733
1028017,-284.48749355035915,-154.02757514272946,299.53321516279544
1028018,-285.0093741496681,-153.92943249292134,299.6348833233317
1028019,-285.20809425941275,-154.52997450001402,300.3800210529594
1028020,-284.8380321321937,-154.4804132494365,300.4709563175988
1028021,-284.9695505040395,-154.06693680220837,299.95750576614165
1028022,-284.03523877224256,-153.77092136575797,299.08280751398223
1028023,-284.2238012843891,-153.90159049858514,298.6913545796651
1028024,-283.3606168853859,-154.97648734089185,298.41486042499025
1028025,-283.3744203192685,-155.25936817679803,297.5394971886953
1028026,-283.4806036230667,-155.13962066768693,297.4097249361509
1028027,-283.2843585076709,-154.53756027482876,297.81146307429333
1028028,-283.39119585393513,-154.0957133237162,297.9264230673701
1028029,-283.47950753843344,-153.93546577055537,297.51788087287457
1028030,-283.3134549462966,-153.9937522236528,297.84484953730623
1028031,-283.5479616875364,-154.68677869925796,297.752292603675
1028032,-282.5224184349277,-155.3498217067515,297.5261177701444
1028033,-282.3669899703693,-154.74091788291204,297.63032775232915
1028034,-282.93885119181436,-155.4798437735832,297.27570533193193
1028035,-282.73678180736147,-156.3460739250907,296.97133263973427
1028036,-283.32928445965126,-155.90519620923897,296.7856256659195
1028037,-283.77667430555977,-155.57616415439006,297.53347707912354
1028038,-283.5614136178218,-155.0901028312126,297.9297694497286
1028039,-282.46469970440967,-155.00242782432574,298.26321194847037
1028040,-283.1086213642008,-153.9509907354671,297.5921126101034
1028041,-282.6392937763051,-154.46425843902006,297.5445578324535
1028042,-283.1736422934817,-153.84102069920016,296.6534104194556
1028043,-283.85600162128,-153.65853464100505,296.5847879704796
1028044,-284.17124024029073,-153.13044264591937,295.62611802427983
1028045,-283.97385553131465,-153.741382661031,295.5784940166216
1028046,-284.3245398841897,-153.34346192060653,295.83390616754184
1028047,-284.326599535289,-153.06421804788644,295.6172416882036
1028048,-284.3662242431672,-152.7000067655604,296.29797750105274
1028049,-284.4077802885027,-152.54239215655946,296.3077174129316
1028050,-284.2966515774202,-151.9197288716051,297.1359413877576
1028051,-284.8239422329419,-151.35511124855321,297.9786637021927
1028052,-284.724387498058,-151.9334607609,297.8243444853327
1028053,-284.3349345569492,-152.34712854330525,297.5310965835236
1028054,-286.05500688247554,-153.01456799965268,297.2543973045232
1028055,-286.175943816973,-152.26854513752136,296.92326892633173
1028056,-286.34613733814234,-152.22829070845864,296.9487470557766
1028057,-286.4234085783029,-152.53423181567862,297.5868505051235
1028058,-286.5003262113686,-152.7420437055589,297.8136277250648
1028059,-286.61864393093333,-152.46615575076837,298.5702381985339
1028060,-285.9764260006087,-152.90829203367153,298.80969507157266
1028061,-286.8199994813848,-152.19097106750527,298.0950104982505
1028062,-287.26720167856803,-151.19656703439387,298.6124185397368
1028063,-288.7212322894781,-150.2078194781486,299.1473761040232
1028064,-287.99000555735415,-149.95648476562658,298.6570378717173
1028065,-288.3178091657104,-150.15724729119682,298.6390423516193
1028066,-287.57587989659476,-149.41244708131052,298.6546360508875
1028067,-288.12470934894003,-149.6067761506727,298.67699760359017
1028068,-288.4391132410131,-149.49085914319474,299.2138814184576
1028069,-288.7623760187847,-149.26822927773338,298.9635894489766
1028070,-288.5213647942937,-150.05037270470518,298.29879463238007
1028071,-289.1770345802328,-150.03093761787292,298.7438972547982
1028072,-289.11179990649083,-149.92544570766498,298.6650747162842
1028073,-288.92592287761136,-149.34536363753926,299.45788930966376
1028074,-288.2065379187681,-149.05309507405684,298.74055073056155
1028075,-288.5945138902377,-148.8427016765564,298.9902783753541
1028076,-288.9032965017522,-148.81749539128907,298.4088801461248
1028077,-288.6832048223863,-148.97123384576187,297.8931229795305
1028078,-288.40111234981043,-149.32062778019906,298.81759719175176
1028079,-288.6842346866177,-149.4842098391145,297.6572064232778
1028080,-289.35972570116814,-149.5441675614915,297.0510217138879
1028081,-288.91240666372414,-150.1340215078349,297.3901980482732
1028082,-288.73552478967133,-150.67283843248575,298.02552789430035
1028083,-288.5103483664078,-150.28653951367264,297.556023758956
1028084,-289.5187880036213,-150.13151076701166,297.5866058996388
1028085,-289.2075973056594,-149.59556905666832,298.09878891784876
1028086,-288.01124009440645,-149.53250083502738,297.17632646571303
1028087,-288.35310949075244,-150.12890833292346,297.75993849460434
1028088,-288.2756325122408,-150.28387718642102,297.61154552148304
1028089,-288.6330249870484,-150.20385613911193,297.210068604821
1028090,-289.19176301451245,-150.9738685060221,297.0116285512523
1028091,-289.15338298575085,-150.76431202074528,297.59953998502635
1028092,-288.59393601907675,-151.28010487940247,298.09113859760436
1028093,-288.70358693488214,-151.39378048132414,298.2055119677589
1028094,-288.55867320732636,-151.27518855916756,297.9835333352808
1028095,-288.25978913243324,-150.5747244939486,297.70639004615083
1028096,-288.8596311918309,-150.27238204752848,297.6459777179147
1028097,-288.0736121215002,-150.1384939265874,297.0795311755315
1028098,-288.9404471935048,-149.74198124149152,296.39169837649496
1028099,-289.9947540687235,-149.40281390027044,296.52159082023826
1028100,-288.8164278873483,-149.25780085625894,296.0662814654147
1028101,-289.0044253304491,-149.75569449008083,295.8921805056206
1028102,-288.4668927485552,-149.57711205988332,295.3659352458986
1028103,-288.72052348823456,-149.82486850275419,295.35824694167184
1028104,-289.2967140813618,-150.35348944916018,296.5007866568663
1028105,-289.6248520526665,-150.1811667860266,296.140231916376
1028106,-289.3966842151294,-151.01294583355863,296.3344918338333
1028107,-289.6155898397615,-150.78541230187597,296.24682375166987
1028108,-289.89338868669256,-150.4720221443785,295.95666221413177
1028109,-290.10540119721054,-150.38295123715784,296.2797121907362
1028110,-290.7003809056653,-151.02613209383253,296.61098330122167
1028111,-290.84605256802735,-151.01260340363146,296.6405962942354
1028112,-290.7435768927515,-150.79674750810105,296.5742538731736
1028113,-290.47014007347843,-150.81808519659032,296.5703718786962
1028114,-289.9825270529402,-150.42242237307613,297.18220741974454
1028115,-289.32614085776964,-150.23685131910545,296.68781195883014
1028116,-288.4551339635379,-149.67284740522007,296.5739488367206
1028117,-289.26477361210266,-149.0700352032699,297.1522992067741
1028118,-289.1431381715832,-149.0229344419315,296.8060221178707
1028119,-289.24387982360565,-149.4518890407008,296.70781735071006
1028120,-289.16912730374014,-149.9344624044549,296.08450711304715
1028121,-289.36829254837556,-150.81288550600974,296.3176853103574
1028122,-288.89384268352063,-151.13512797858013,296.4950449299005
1028123,-289.05755769142434,-152.31254221854616,296.98632451547144
1028124,-289.01276272851965,-152.763449416713,297.0335803065581
1028125,-289.8093674947023,-152.75670414979106,296.62233069737687
1028126,-289.5014765468304,-153.4340580349417,296.6512724808208
1028127,-288.86518071331545,-152.56282067202758,296.64867149761454
1028128,-289.1082932184568,-152.7975307115652,296.0797817026523
1028129,-289.27261286777497,-153.58907693232123,296.8234688566879
1028130,-289.28164034587104,-153.29093798839781,296.78301379823904
1028131,-290.1670850613006,-152.9650789293901,296.99406657065316
1028132,-289.1172005607095,-153.02322225555096,296.80453395849
1028133,-287.9536130114456,-153.46033458618547,297.54488475013176
1028134,-288.2861124200038,-152.6508684932739,297.2713891077859
1028135,-288.1501162142599,-152.4404477949658,297.08978337382894
1028136,-287.8695977248371,-151.9147669219767,296.5966522145088
1028137,-287.7348264671288,-151.50310929892902,296.6608770784601
1028138,-287.7307034355855,-151.53350983930437,296.6206409510765
1028139,-287.31969070575246,-150.5704639497396,297.02848912217394
1028140,-288.0724969589329,-151.58105867048235,297.1152408645194
1028141,-286.8799637098701,-150.64030126876543,297.33980047357846
1028142,-286.79189017971225,-150.9009925371311,296.7792391661461
1028143,-286.2864520461123,-151.38596859882185,296.70037080254343
1028144,-285.7461078038596,-151.4786774205331,297.6938620300143
1028145,-286.99010942086284,-151.22228549238315,297.6850798825193
1028146,-287.61237132215456,-151.72329624466568,298.2099660813281
1028147,-287.810491665208,-151.99687884517706,297.9994161515965
1028148,-288.04015190659504,-152.31682675218454,297.9254373164746
1028149,-288.3224337290861,-152.64342400106125,297.98810832980087
1028150,-287.8034576735083,-153.48727708037117,298.50854736899356
1028151,-288.3521035565736,-153.32643285276268,299.18825870896677
1028152,-289.2210306741219,-152.52541736702602,299.3929619701504
1028153,-289.5651168377821,-152.2694797759606,299.03560624357766
1028154,-289.7936286977387,-152.05146894421242,298.956347684219
1028155,-289.6205021779047,-152.02542347646607,299.1314201679768
1028156,-289.55590460266063,-151.5535087154377,299.3484932455342
1028157,-290.2417674781449,-151.02066892368416,299.11335211905424
1028158,-290.17134490902487,-150.73870695693995,299.1891168898247
1028159,-290.65468891430186,-150.20447497922973,298.9714502404845
1028160,-290.4981130190713,-149.62923782361747,299.4623941345004
1028161,-291.2806169428182,-149.27677381068492,300.2445600930777
1028162,-290.78389412647493,-149.24387476073915,299.7962781984109
1028163,-290.7443928112743,-149.76835345580693,300.22429113047104
1028164,-291.69685661187617,-150.30726874722117,299.6346286627227
1028165,-291.48769658434566,-150.5835077646071,299.3074517675556
1028166,-291.1384069343622,-150.28966953933653,300.22640934061576
1028167,-291.5748053792172,-150.27195308702557,300.2821875167066
1028168,-291.3218713431022,-150.32255463114777,300.1499930356438
1028169,-291.69678594982145,-149.4886189175892,300.56053155833456
1028170,-291.61785697050846,-149.75305579492405,300.9154550340509
1028171,-292.05804736994344,-148.6510561202732,301.0246838950241
1028172,-291.4723507063041,-148.67517761090355,300.49561628330025
1028173,-291.2496177554198,-148.72421409755648,299.8908568799548
1028174,-290.7204210522406,-148.23735796353725,299.8735915789907
1028175,-290.58758115654354,-148.51486457338828,300.11544816679435
1028176,-290.9525735605038,-148.8578662080871,299.673175070341
1028177,-291.01603015267045,-148.18274630620297,300.77381876959294
1028178,-291.2195524961517,-148.29323667295859,301.41621387609393
1028179,-291.3004860489958,-148.896600833463,300.83500671735726
1028180,-291.270236669462,-148.37847050228632,301.01690507501195
1028181,-291.35717967356413,-148.84357684813384,300.52407458305703
1028182,-290.92682506756375,-147.8446897098362,299.8975752137995
1028183,-291.3408743424063,-148.06006244966636,299.86568887677186
1028184,-291.3078315193902,-147.9238518352428,300.9643056923214
1028185,-291.8942398937259,-147.40968447246794,301.46122538544745
1028186,-291.2521686756235,-146.97761365911225,301.6192392411288
1028187,-290.90059975573206,-146.66439293613578,302.41393028249337
1028188,-291.097872325208,-146.97309109643115,302.7248258228278
1028189,-291.2138519851746,-147.49888292188854,302.38761510565945
1028190,-290.49008302094245,-146.18483844310217,301.4257811007332
1028191,-290.43395143780094,-144.73151430532477,301.9943867745994
1028192,-289.861558253192,-144.96832197775743,301.9380600410495
1028193,-289.70245105785176,-144.97038869191996,301.3083623146305
1028194,-289.7631598477559,-145.25707538912036,301.5921333118692
1028195,-289.9978994794083,-145.36815125801365,301.6239507961952
1028196,-289.59283993783976,-144.47634404195355,301.71905779969376
1028197,-289.56153543839366,-144.2039092507845,301.9226633979823
1028198,-289.03646466270845,-145.10320441580063,302.32294208691565
1028199,-289.8907482058642,-145.85616089853625,301.4832099025805
1028200,-290.8032570267976,-146.34094373781895,301.4064976135025
1028201,-291.3067226000556,-145.91200181921909,301.9879418798185
1028202,-290.3964843542174,-146.24515716201546,301.83894085482933
1028203,-291.37713065728843,-146.77133715252018,301.67990161349064
1028204,-290.3307518983315,-146.43355906278038,301.39340261541986
1028205,-290.03917695469806,-146.11441984401336,301.20391701729613
1028206,-290.25704760963595,-145.87450452791091,301.0131426356066
1028207,-289.64700697691063,-146.16263143729384,300.59149728956766
1028208,-289.7124965749735,-146.78207917587395,301.2746497086453
1028209,-290.24572309857643,-146.39284086020606,301.33951733490403
1028210,-290.3903939783133,-146.59235283734643,302.36693034987286
1028211,-289.79048638240425,-146.8290241879253,302.0301865266888
1028212,-289.8429292355277,-146.86655232764895,302.18975533845116
1028213,-289.4162571419422,-146.68803951955928,302.1091695265417
1028214,-288.8405857665434,-145.94418975222297,302.60340079455057
1028215,-288.8870376864142,-146.14705612607045,302.3791902720422
1028216,-289.36671741517193,-145.97320987497733,301.3714723586727
1028217,-288.84858289625294,-145.88029793809392,302.2404055314313
1028218,-288.371688655247,-145.6959564982718,302.2983298732082
1028219,-288.3914017322738,-145.75905169394508,302.2853311473888
1028220,-289.1552012822008,-145.9480072420402,302.37405782593095
1028221,-290.0230735268846,-145.96118999792532,302.94769286931734
1028222,-290.58045613966385,-145.8652940284757,303.01508201441584
1028223,-290.4649494992905,-147.21360478877062,302.5487179543016
1028224,-290.6535183512772,-147.21942741393184,302.7659109650539
1028225,-290.7679153514611,-147.75079155369295,302.8351276405494
1028226,-289.9688905568045,-147.01136647330696,301.97253604696806
1028227,-290.2256627234038,-147.23625512025978,301.9047459003096
1028228,-290.3766026481041,-148.95459128460607,302.3907510738146
1028229,-290.76945246124444,-149.21348389932248,303.0996205935233
1028230,-290.3805478263582,-148.69791339538736,303.1551367464561
1028231,-290.61127054667116,-148.8990813611808,303.51534791397586
1028232,-290.9938368859172,-149.23815457686877,302.70860110571004
1028233,-290.5271111019088,-147.96809272609704,302.9474926922852
1028234,-291.5164731509842,-147.89838242526636,302.5628942198514
1028235,-290.7867481828112,-148.8213237356759,302.4141464396458
1028236,-290.6480635382839,-148.924865858789,302.0981393738738
1028237,-290.0492674169297,-149.15283880550254,301.6159053185542
1028238,-289.8147998249898,-148.97002060236875,301.8362960698865
1028239,-288.8350221120434,-149.42160705357284,303.1907839319801
1028240,-288.1695088003856,-148.6044606217858,302.81392362551014
1028241,-288.10994202492043,-148.54435461081266,303.4772651080663
1028242,-287.5050798382655,-147.9731783921258,303.7391515020465
1028243,-287.42911187101373,-147.88879707929104,303.4390297594543
1028244,-287.044518868365,-147.0647767514525,302.97735766938183
1028245,-286.85111042107405,-146.62799388715328,303.42112388961243
1028246,-286.3397936544677,-146.47796638385714,302.97275972913985
1028247,-286.66306843525194,-145.5159616987408,303.3740583267985
1028248,-287.21340736636773,-144.4007928837134,303.2711797219907
1028249,-286.55344381442865,-143.8940443504866,302.6250241673675
1028250,-287.0535607352907,-144.14267096150277,302.0423518568934
1028251,-287.0071258275733,-144.29230649614834,302.5243645956552
1028252,-286.7780804531594,-144.25635461200318,301.95078062725594
1028253,-287.1556197132083,-143.9868947768947,302.3979590321537
1028254,-286.0485372909957,-143.82222598901015,301.6896657807409
1028255,-285.3750243947621,-144.049711259674,301.60563362936966
1028256,-285.58306723541193,-143.88036911455532,302.70703221362993
1028257,-285.3771660973712,-143.53793376987227,302.3775499590807
1028258,-284.8550096047638,-144.17012767214388,302.07474238434685
1028259,-285.0556750632457,-143.52575301283318,302.8307973180598
1028260,-285.4432646737402,-143.52882624734025,302.7926663533294
1028261,-284.76085618568646,-143.15900977381227,302.8710860200615
1028262,-285.5762689016847,-142.88815755353122,303.1671767345776
1028263,-286.44558320981827,-143.95468056730613,302.3313077933586
1028264,-286.1797338978236,-143.9518695404843,302.0815032136585
1028265,-286.4067237076232,-143.52050895266717,301.7295945375323
1028266,-285.71359150880204,-143.42506112736237,301.47557886668227
1028267,-286.1825726564559,-143.6654982682004,301.3098548741114
1028268,-286.52743000121615,-143.17325207698687,301.5421004042357
1028269,-287.2301397622523,-143.23958614287423,301.56979638465555
1028270,-287.12721561185265,-143.17239275520055,301.45885461762083
1028271,-287.40808636729275,-143.30680253233226,301.6545070568582
1028272,-287.58938140995474,-143.00402869467942,301.61479529548524
1028273,-288.42626517365323,-142.9805129021461,302.247683888155
1028274,-287.68346400559574,-143.4543541652332,301.8936166662052
1028275,-287.3159802168619,-142.36855365897006,301.03447289958063
1028276,-287.9681022841916,-142.81542061291282,301.8288740493235
1028277,-288.6392746631017,-142.84912290971147,301.49238419666597
1028278,-288.8034247719002,-143.19834169007223,301.3049080980872
1028279,-289.35323045748197,-142.9577493053984,301.3604735237915
1028280,-290.0435118135434,-143.85546007618998,300.9287845980113
1028281,-290.0438729503681,-142.84137361462268,300.7122528222689
1028282,-289.997438693062,-143.45591736738265,300.4141380818614
1028283,-289.835706059757,-142.96602446518668,299.7956064816247
1028284,-289.5632818911458,-144.11786940545088,300.0356648340433
1028285,-288.99785960217423,-144.25108564138907,300.8361687550084
1028286,-289.69945650676436,-144.31612135051788,300.5448514670658
1028287,-290.307964290144,-143.81469116813574,301.15641686312097
1028288,-290.23991267068266,-144.47584992180663,301.31301301780826
1028289,-290.74391778594384,-144.26605854765694,300.748377847227
1028290,-290.4875801392163,-143.26947329811512,300.4354197013432
1028291,-289.94384143453345,-143.30156651478646,300.1404596631607
1028292,-289.9128023013033,-143.43922700403044,300.77079376785287
1028293,-290.02412760564005,-144.02985056396994,300.6692555811999
1028294,-290.4608276517615,-144.08198266219495,300.1307771988954
1028295,-289.9873311393912,-144.6536091589331,299.13189145608135
1028296,-290.98184908551684,-144.53091379677335,299.17805272712025
1028297,-290.99909190207,-143.52725719620835,299.1657638483368
1028298,-290.9696636993404,-143.763301628217,298.83049064785115
1028299,-290.45619841317125,-144.580191640289,299.3936633758759
1028300,-290.8957295338062,-145.04791877894596,298.57918968502366
1028301,-290.7048680561422,-145.52728937535989,298.0057329092062
1028302,-290.4632482909746,-145.0113608567082,297.89892718916104
1028303,-290.00844282875806,-144.78178265249696,298.5478839003282
1028304,-290.2518416566948,-145.67924992867185,299.47105651873414
1028305,-290.4615225107045,-146.06378306649867,299.27060814932344
1028306,-290.750331882722,-146.68310741541174,299.41259265156083
1028307,-290.5810827600108,-147.11345480452925,300.0691072476946
1028308,-291.14402363740305,-147.25502897551058,299.86658232833685
1028309,-291.5165922080735,-147.26149391620876,300.1203513514539
1028310,-292.17333091523966,-147.6410402521708,300.3024110612152
1028311,-292.2561439172157,-147.41737939953134,301.3718082242173
1028312,-292.5520289394854,-147.32642397768038,301.6513161673141
1028313,-291.89429126164754,-147.1193215639576,301.5678475595365
1028314,-291.47020130432054,-146.98148526099678,301.90129220004286
1028315,-291.9854546405199,-147.272294721434,301.6916646608498
1028316,-292.9989624973565,-147.29646226544813,302.41373513985815
1028317,-293.0427676082887,-147.51984459644873,302.51448449832503
1028318,-293.3345903333102,-147.91067361145863,303.4039942026676
1028319,-292.7766639803057,-147.89857091353312,303.1182947851314
1028320,-292.4282528524288,-147.69979659609388,303.69028982176997
1028321,-292.0822834366549,-148.43047941954217,304.329473783431
1028322,-292.09624978490933,-148.99649834302085,303.9162096669476
1028323,-292.39885573029613,-148.4292152445771,303.9778006668134
1028324,-292.9040925086778,-149.42982275118788,304.6811369083617
1028325,-291.67971384954967,-149.1595817664263,304.27968568850474
1028326,-291.5443535048908,-148.07471077620906,304.68320108483584
1028327,-291.49864980982426,-147.71469829316612,305.9509064789134
1028328,-291.5875107318567,-146.97591720589799,306.62085933969854
1028329,-291.4689079470105,-146.5259166835683,305.7287039946193
1028330,-290.6396347069349,-146.16412052126725,304.95002502966645
1028331,-290.4393904247578,-147.0962650381627,304.81986283806236
1028332,-290.27021751219684,-147.71103510196312,304.4036101100768
1028333,-290.1142753863075,-147.11675139422576,304.4932875183279
1028334,-290.4652033984573,-147.28577205674858,304.80268540933514
1028335,-290.1537378116757,-148.0924704743678,305.9748859207857
1028336,-290.3833130614476,-147.0398162983714,305.20332172424526
1028337,-290.5961339209275,-146.8471567922092,305.7595724544579
1028338,-290.52749192947255,-147.1026470413122,306.3605835203937
1028339,-289.954346040422,-147.05651592074418,305.5485556955098
1028340,-289.3623054935177,-146.09243717430746,304.59793243856615
1028341,-289.0984877071393,-145.49587465045065,304.1410297774677
1028342,-289.2375095607105,-144.95450428488476,303.56625168904134
1028343,-289.01759703897454,-143.96919037475033,303.36213820449115
1028344,-288.44364600251924,-144.2581045900573,303.31361027922884
1028345,-288.077466062818,-143.99772480892034,302.57871700668284
1028346,-288.4351527271146,-143.57246054944497,302.8531591352886
1028347,-288.8558760751442,-143.6539025562839,302.86208554522676
1028348,-289.30137229329983,-143.34542208072017,302.8559348241043
1028349,-289.5372678119922,-143.24392439936008,302.69483120825555
1028350,-289.2430614948905,-142.7740795403316,303.27447005304145
1028351,-289.268675155705,-143.35234419182257,302.94059550847805
1028352,-290.10479282424023,-142.54259932109326,304.06927426295937
1028353,-289.5636808039569,-142.5831916032422,305.0853641474711
1028354,-289.93609491071936,-141.76062787696915,305.28508544563147
1028355,-289.4103935402937,-140.90030678888988,305.76906567945656
1028356,-289.1637583381714,-140.45454835399087,304.983866486035
1028357,-290.17435772229373,-140.99499804843177,305.11180326686434
1028358,-289.01434105315514,-140.29436195843726,305.7988816551158
1028359,-289.6494025431149,-140.2912833619208,305.92604550650015
1028360,-289.534543802745,-140.9193310681069,305.19157347793436
1028361,-289.81276475983674,-141.06468710021892,305.39344735075747
1028362,-291.288865300132,-141.4932613870083,306.24732929906634
1028363,-291.47214378041343,-140.7053551412504,305.4971073862345
1028364,-291.3093729100864,-140.91828744389488,305.510923411168
1028365,-291.26168314093803,-141.15311120946978,306.5000417213431
1028366,-291.036573840626,-141.72170696817057,306.52088682413876
1028367,-290.8692585263613,-142.1521074376912,306.0399093752134
1028368,-290.60149055873205,-142.28503440207533,306.5869820841579
1028369,-290.9525331071005,-142.45971367983583,306.0520059273619
1028370,-291.8266942121056,-142.59957664044728,305.96588369154904
1028371,-291.7957486974638,-142.81999706877906,306.350519384915
1028372,-292.4139665811697,-143.2834387020155,306.08119143115806
1028373,-292.3525278232576,-142.89931598342372,306.6225564114795
1028374,-291.7075722499164,-142.53172739523626,306.6706629131166
1028375,-291.7619490894054,-143.09170644920835,306.3040511371449
1028376,-292.64126497525103,-143.71192759765896,306.7015024455071
1028377,-292.22931951088077,-143.51839482400993,306.64069587115296
1028378,-291.3730897023772,-143.44114217330943,307.56015202451
1028379,-290.6126904777817,-142.94389010796374,307.70499853015315
1028380,-290.67526325011573,-142.92862988703138,308.0398151852446
1028381,-291.3422137395638,-142.72368333028544,307.57546512793397
1028382,-292.0850715728654,-142.1103083018312,308.14391878535395
1028383,-292.2189305190686,-141.72629550593965,308.8602932905868
1028384,-291.6374964754339,-141.96618804336927,308.32377931952004
1028385,-290.9874633333138,-142.0749706429889,307.22227616370986
1028386,-291.22762386682393,-141.85725817183626,307.14130430995937
1028387,-291.01620862694614,-141.3787709753453,307.1549066466675
1028388,-290.9410973237751,-141.311718261256,306.91906021272047
1028389,-290.9757317883598,-141.7134906238237,307.5938914665815
1028390,-290.98257989545044,-141.26066793514352,306.7703111469694
1028391,-291.3907533768911,-141.43566561473628,306.1385153609766
1028392,-290.69874486046564,-141.88943375475728,306.3208039510979
1028393,-290.0524140170021,-141.4499675273085,306.56543783426
1028394,-290.8281868205985,-140.98170014985365,305.87251334382313
1028395,-291.55064667419464,-140.21676864687436,306.5552683836343
1028396,-292.04919584238394,-140.59561787544712,305.72558899341146
1028397,-291.82584463283274,-140.09715780259054,306.33596128962654
1028398,-291.3225707580078,-139.97522762228553,306.8353329833991
1028399,-291.3966427839659,-139.07978794639052,307.49130551170845
1028400,-291.04564759122917,-138.5613282852253,308.5603210765308
1028401,-291.3701920753077,-138.42130616551233,308.36276797002154
1028402,-291.9949492841919,-137.7837085980312,308.9916201762435
1028403,-292.1273145327065,-137.68824939194755,308.90402083344856
1028404,-290.87155429841687,-136.70689014102808,308.6298895107477
1028405,-291.2897815481273,-136.41391067287907,309.1547006855882
1028406,-291.4261714199385,-136.32941365772695,309.82338923194226
1028407,-291.15823964420275,-136.55148661613813,309.0030485086909
1028408,-290.88093061158673,-135.7662847206676,308.7665775295462
1028409,-291.2319954461608,-135.51428660950182,308.64371104887675
1028410,-290.93820911491673,-136.42792274749263,308.6222657667496
1028411,-291.1630485344911,-136.8959922359667,309.0538351445431
1028412,-290.8527491438251,-136.49616390073763,308.5574476087694
1028413,-290.7343474671065,-136.42955059785746,308.62486307792136
1028414,-290.60674136231927,-136.35118243040063,308.2145280153183
1028415,-290.1658075528771,-136.3983987045348,308.1862785953451
1028416,-290.191483405134,-136.07226225858304,307.9209888987076
1028417,-289.5563542115482,-136.11696790567942,307.51838795770664
1028418,-289.4441820285005,-136.52065575416742,307.10834438862827
1028419,-289.51359928354907,-136.6134734790025,307.81089346379395
1028420,-290.51122617767396,-135.91410449334904,307.7945823739678
1028421,-290.7245275732755,-135.7727260460569,307.7330881206591
1028422,-290.32676589827673,-135.75923429036285,307.2217585244924
1028423,-290.39819537641984,-135.52372641381152,307.66316765243346
1028424,-289.77366347442336,-135.57109932876156,306.72933328516854
1028425,-290.2307846114102,-135.8379242048103,307.13077803427484
1028426,-290.8289041036176,-136.18626700166448,306.43943145094966
1028427,-289.72617280437447,-135.81852867205635,305.90026721500055
1028428,-290.2871444900578,-136.07199966362927,305.4025922974184
1028429,-290.69100546435294,-136.08316655000257,305.66208712505846
1028430,-291.31483210905424,-136.87440846194502,306.14062826965846
1028431,-291.24353050800784,-136.50971839589934,305.58552360833113
1028432,-291.34142591417964,-136.5219753923263,305.93591049542846
1028433,-290.66919567404085,-136.3094233919924,306.1258086708775
1028434,-290.6642291991002,-136.38427779174032,306.9423777706221
1028435,-290.4137300402608,-136.3503993563337,306.44590208954867
1028436,-290.05788546606703,-137.0739279152565,305.8115486011587
1028437,-290.86879859562794,-136.88925949895673,306.1470378506629
1028438,-291.2221810749278,-137.40375027752162,305.8907093812707
1028439,-291.6355495438019,-137.64969937414045,305.97731987199245
1028440,-291.422559526689,-138.33440439583958,306.9627436212743
1028441,-290.8514922990201,-138.1356894426693,306.907385881296
1028442,-291.18505320829655,-137.94192348445995,306.605736102545
1028443,-290.8042319092717,-138.05786179265633,306.3249808097544
1028444,-291.4479726851307,-137.79568156988228,306.0025853665558
1028445,-291.31555488129607,-137.53297746702808,305.66342324497634
1028446,-290.8590779947956,-136.82314543185126,305.8821255470631
1028447,-290.93099354094926,-135.84012458392826,306.30402978017617
1028448,-290.5211285754793,-135.93551563860476,307.62245024743225
1028449,-290.2366858422396,-135.41966979506975,307.8012978301146
1028450,-290.0927315818891,-135.87631699667048,307.86614437782356
1028451,-290.257156164055,-135.39051029132236,308.54562876128637
1028452,-289.2882031595602,-135.19751370518895,308.10410398295346
1028453,-289.5951067570739,-134.92293927055297,309.0546884050215
1028454,-289.27784351172374,-134.99586908693107,308.3641944514581
1028455,-289.3258576125383,-134.00708109270843,308.2480374925679
1028456,-289.6407405847808,-134.44550214365233,307.39304463113336
1028457,-289.50718179470124,-134.12252279902333,307.5178516942843
1028458,-289.3295632351869,-134.9268967583463,307.4690018426968
1028459,-289.6985273778189,-134.81205858322053,307.77316848229185
1028460,-291.0417064724526,-134.97062287923467,307.4535615737476
1028461,-290.93108175322715,-134.3059064487993,307.14785951097167
1028462,-291.0835317448376,-134.4623261506546,307.2332930020261
1028463,-291.54484100367006,-133.46964243981384,307.0428697563336
1028464,-291.81448044408336,-133.65120758268964,305.9670892130505
1028465,-292.4032006070121,-134.2974248050474,306.4691869152211
1028466,-292.7842829857158,-134.14107226325703,306.8058481489471
1028467,-292.27466920519777,-134.157679212584,307.1366424014237
1028468,-292.1306935600725,-134.15217619889674,308.08607829612555
1028469,-291.9107547852313,-134.23528907221052,309.37433273469566
1028470,-292.2417317021066,-133.3840361727021,309.4112209930149
1028471,-292.9723911113854,-132.92551123413674,309.0384193269406
1028472,-292.8539959890915,-132.7696258033028,309.3485819963007
1028473,-292.7268827417289,-132.45162309553862,309.349548051933
1028474,-292.4338424291172,-133.13287566184266,309.70320216880094
1028475,-292.9937063914399,-132.46360912874252,309.4497399189697
1028476,-293.59665992718067,-132.91111994404676,308.80414373898446
1028477,-294.1490463669822,-132.5476754198783,308.02625493186093
1028478,-294.36106049918715,-133.78657002833464,307.6582231700722
1028479,-294.4401320144713,-133.22502461136182,307.97533121606034
1028480,-294.77646179340536,-134.5320900413541,308.47601623246027
1028481,-294.40621906642764,-134.57441739105414,308.5057450959414
1028482,-294.67841101068495,-134.80360022517897,309.28658891107335
1028483,-294.326621289147,-134.94468800146547,309.60775861734
1028484,-295.2031895014425,-135.18524799721126,309.02593030850744
1028485,-295.120577178314,-135.41237257863864,308.6204996265224
1028486,-295.30544376703915,-135.1889195679822,308.3753311065311
1028487,-295.62083786752373,-135.38614322730663,307.8514340038938
1028488,-295.41865310469893,-135.5102510641977,307.88453869240095
1028489,-295.4224662918392,-135.82748748969868,307.6545299868142
1028490,-296.03971763787825,-135.52005007859063,307.7195373528596
1028491,-295.96780772321574,-135.13545689036064,307.76678123961295
1028492,-296.56401786559655,-135.487683151651,308.6237449168627
1028493,-297.1961213787926,-134.9887423118545,309.40134615544935
1028494,-296.41120859032964,-134.36043241369222,310.0377685439064
1028495,-296.44085486310377,-134.79789606174552,309.6564634572915
1028496,-296.95498309671774,-134.85753782234738,309.3946277484135
1028497,-296.10457837778347,-135.40027234616906,309.01619490007397
1028498,-296.3614229173945,-135.56089466567758,308.593729200587
1028499,-296.35118547052747,-135.1108390887427,308.3705772667092
