sample,gyro_x,gyro_y,gyro_z
1046000,-365.2976193022948,-246.55716083972843,233.28076843761667
1046001,-364.71700841974024,-246.88315210956094,232.48350182783415
1046002,-364.2540824264179,-247.25116905703584,232.40449472996136
1046003,-364.09094529305725,-247.259317552021,231.34973705941053
1046004,-364.2879069334779,-247.70892181218144,231.1543767406509
1046005,-364.45197233114146,-247.50935492212795,231.03090959546242
1046006,-364.351056180942,-247.61053933616552,230.70622076239408
1046007,-363.9349599450218,-247.8702061334167,230.79139830091796
1046008,-363.816507470966,-247.74627969366114,231.1604999089288
1046009,-363.671856841078,-247.56457174653417,230.5523751949421
1046010,-363.9941217200841,-248.39020760333813,230.31298335744313
1046011,-363.8911419450885,-249.14344028680318,230.78280527652117
1046012,-364.6667656671823,-248.68357844618754,231.5745534099489
1046013,-365.2486759188158,-248.35361072566965,231.23793050787853
1046014,-365.1156394515177,-248.75089809148378,232.11846706764658
1046015,-365.3230663064464,-248.4560906576409,231.79850559049595
1046016,-365.63786751057734,-248.44078292956095,231.8263575439902
1046017,-366.0192998883194,-248.83444116384106,231.900163021565
1046018,-366.06150289864206,-249.59333533189164,232.53305643497868
1046019,-365.73549911777906,-250.03359940687787,232.62607348684568
1046020,-365.23585529523535,-249.5129115863639,232.4663158557876
1046021,-365.70675028239737,-249.4695042736232,232.33534931506068
1046022,-365.0718635454063,-249.49578488694712,231.72590892637328
1046023,-364.9046545868835,-249.818792514932,232.03096411715214
1046024,-364.65979378241803,-249.87960655203506,232.42696663328945
1046025,-364.1720924692357,-251.00138466622025,232.65891001902915
1046026,-363.7957720749764,-250.7796389999352,232.7583839773105
1046027,-364.51060163336575,-251.4124608782975,233.4381851709906
1046028,-364.6756630715315,-250.99822527175849,231.94706081955638
1046029,-365.2215156330573,-250.6655310376461,232.16273736466025
1046030,-365.5399956822872,-251.26385239866104,232.3526694143809
1046031,-365.92721380496766,-250.64976472157474,232.07721213672508
1046032,-366.01283403518215,-249.90654064872393,232.3995372263208
1046033,-366.00698530127715,-250.38072882149302,233.06726774919832
1046034,-365.2073353310602,-250.212723089569,232.6436225928872
1046035,-364.50332891932146,-250.33292740055506,231.93693481938823
1046036,-365.51223073196604,-249.55163844395884,231.96951322244726
1046037,-365.1558014701902,-249.1822634250552,231.52767615607672
1046038,-366.148329805515,-248.98622811694608,232.4091735213923
1046039,-366.24500592379326,-249.53229258019869,233.14491263639934
1046040,-366.44494539850695,-249.85307596454055,233.15575900839832
1046041,-366.3097837770813,-248.2846480014318,232.84603832411284
1046042,-365.7536367581148,-247.94977684327017,232.44122608766628
1046043,-366.07140348333957,-248.15198027308327,231.32300442663143
1046044,-366.3943954058989,-247.94264520638419,230.74085575959938
1046045,-366.6063427765924,-248.09167412771626,230.2443366891229
1046046,-366.79525482896685,-247.68662099442537,230.0995691793334
1046047,-366.7354528952263,-246.9749768913454,230.36799234405635
1046048,-366.7580436734613,-246.59358532844922,230.3485245632114
1046049,-367.0252018448486,-246.81749958350903,230.12080545376645
1046050,-366.91356781986786,-246.80053296346648,229.5265546590717
1046051,-367.20438099089864,-246.0356551692273,229.39129363169252
1046052,-366.5668811199955,-245.4183512602875,230.06720326669375
1046053,-366.64740768213574,-244.72624332566588,230.38631708816425
1046054,-366.65901521507686,-244.50629579573607,230.63857607522976
1046055,-366.06649837936095,-244.68845921799348,230.8058583507118
1046056,-366.0367149526414,-244.4280258632802,231.1873356461212
1046057,-365.5311598635172,-244.79701975586994,231.4316333815548
1046058,-366.02008651071685,-244.43622489973353,230.93114213060977
1046059,-365.6923830353902,-244.4155971407668,231.1222366914443
1046060,-365.43898431709675,-244.53887857271098,231.48728572004686
1046061,-365.380753488824,-244.02364739949505,231.47643683457335
1046062,-366.00459688897905,-244.73393571544455,231.24093946075067
1046063,-365.6883438275483,-244.8955647377942,231.39085986037742
1046064,-365.22534221119844,-244.37621803772765,231.0430896303084
1046065,-365.0707561140494,-244.18145766221394,231.21375083076015
1046066,-364.85729366783795,-244.53015026335174,231.1957181158116
1046067,-363.94537032949654,-245.5632621014545,231.31954756241873
1046068,-364.19626920945456,-245.6453377163379,230.97213331903717
1046069,-364.22945573726486,-245.59591574922084,231.18140306178452
1046070,-364.91845195505056,-245.94115623764324,232.63457722177884
1046071,-364.52160337105465,-246.48260759900185,232.42284810266798
1046072,-365.63694431095956,-246.22024577352812,232.00546502575364
1046073,-365.97120378461705,-246.1820973898202,232.16386977690252
1046074,-366.3136747366492,-245.73559861387514,232.2344454173534
1046075,-366.01453016248126,-246.1265801084561,232.25512649584076
1046076,-366.4430362234845,-246.12008047178512,232.28052675548412
1046077,-365.37948283887556,-247.24173470149907,232.41104138432217
1046078,-364.2297826248578,-246.7844030680694,233.13857208244323
1046079,-363.5816322495005,-247.37151019131068,233.18401451048413
1046080,-363.0906414416921,-247.16135505457873,232.12816540003058
1046081,-364.35824942793647,-246.9792765308202,231.7949027640869
1046082,-365.2496091591919,-247.3464631353883,231.5930156628662
1046083,-365.28076345620883,-247.80526633416773,232.70554099749256
1046084,-365.7964995053656,-248.15033183225358,233.03161187841084
1046085,-365.4032991716661,-248.24714570150635,233.79971125242054
1046086,-365.2566391869339,-247.5729372502069,233.79244899824192
1046087,-365.871880871866,-246.90279353422923,232.95172751570303
1046088,-365.96136701413616,-246.9647782414975,233.07806362962236
1046089,-365.71250530190287,-246.1325895094703,233.6802985849931
1046090,-365.58097582425694,-245.9810304587974,233.8114143131467
1046091,-365.37985994865767,-245.8522378806858,233.59319299931173
1046092,-365.9157018885308,-245.05508164272848,233.6738815336767
1046093,-366.31841641872796,-245.1533207821573,233.39868710514244
1046094,-366.93855718284317,-244.32658024253877,233.49618323963963
1046095,-368.0091328885342,-244.87270748928657,234.09953162723366
1046096,-367.64168792058217,-245.21310419398725,234.64486306220937
1046097,-367.20264190994396,-245.14143485590088,234.73945782810785
1046098,-367.20568685165375,-244.85458015338165,234.57661286056015
1046099,-367.09033009876106,-244.6560292617819,233.93007044139438
1046100,-367.4592704323955,-245.14499812897088,234.18213960784593
1046101,-367.3002253080373,-245.4152162808503,234.60636205244944
1046102,-367.8580896450588,-246.0038064927704,234.2434971733618
1046103,-368.0609685138741,-246.34469900981057,234.0695881711003
1046104,-367.74308600292,-246.01305606201782,234.34353713382816
1046105,-368.3120083945242,-245.83140326109182,235.0350386139347
1046106,-368.86111846956385,-246.35376259236295,235.28953712938184
1046107,-369.15034079363943,-246.36968427576096,235.7379258133933
1046108,-369.2113212377765,-245.65191899073753,235.89776176867448
1046109,-370.11493904642856,-245.59069036311044,235.6939422595691
1046110,-369.76592036757836,-245.1656810594771,236.00556240551404
1046111,-369.7016939255686,-244.7346180883431,235.89166430967563
1046112,-369.9120656433848,-245.60231255667935,235.7997579820719
1046113,-369.72634560459164,-245.58769335520012,236.94052719744676
1046114,-370.261369050658,-245.49659813795785,236.72732030737492
1046115,-370.18959055469867,-245.97522833259234,237.9687811089122
1046116,-369.3453535175629,-245.51993296973885,238.4438268363428
1046117,-369.2236771360212,-244.4506703218657,238.01313457816585
1046118,-368.72439631454773,-245.2816831635253,238.67331969248107
1046119,-368.51363713810997,-245.07441758046073,238.63770284726814
1046120,-368.13531146032506,-245.12560069357158,238.69891622723932
1046121,-367.7738754494043,-245.11195946743797,238.65642758499175
1046122,-368.2197828914001,-245.00781130293038,238.7208346964226
1046123,-368.0981501355108,-245.6588891696707,238.16538174732977
1046124,-367.89479278987693,-245.48010415526343,238.2765949782034
1046125,-367.7419227008601,-245.12624221636764,237.9448386551834
1046126,-367.38350819634786,-244.87304844436724,237.47344732821279
1046127,-367.57847957959865,-244.45486807225157,237.5424214875956
1046128,-367.9286133486969,-244.095339371983,237.57527945248586
1046129,-368.10580440365527,-244.34983382733273,237.34988397019322
1046130,-368.24367257744797,-244.5518723587113,236.93554683012354
1046131,-367.74115735117084,-245.02725702283286,237.54305527080135
1046132,-368.0679895252065,-244.8178242186007,237.1957044044475
1046133,-367.4967317086129,-244.9907484583691,237.44270947191922
1046134,-367.67936321282986,-245.09364860821393,237.084532902196
1046135,-367.4456886439051,-245.26796906406918,237.18049950641648
1046136,-367.4077785645978,-245.54692026265707,237.09195753910535
1046137,-367.5049941330314,-246.25574872943125,237.85100529312882
1046138,-366.6465591413244,-246.95731704989907,237.71985231628733
1046139,-366.51212888199876,-246.91604893950154,238.29553214060618
1046140,-365.9111804228408,-247.08559479767612,237.21318293421325
1046141,-365.7854954211782,-246.8509881711735,237.17430281439474
1046142,-365.6890250988254,-246.85621079092084,237.32352661989952
1046143,-365.9390640201508,-246.2888657946608,237.7958020176668
1046144,-365.54666956696474,-246.02685816833446,237.09976598276617
1046145,-365.6267233148086,-245.69585178550855,237.23677517782244
1046146,-364.822677374914,-246.3971984023648,236.28994118881565
1046147,-365.21243310559936,-245.82384462440416,236.50586651441716
1046148,-365.6290492329055,-246.20489851814355,235.9408251544569
1046149,-364.37781103375676,-246.4822202850939,236.0241090512364
1046150,-364.5485829593559,-246.9659479798708,235.6034210313234
1046151,-364.8156225408939,-247.11464336082517,235.57125541474977
1046152,-365.29426210389056,-246.50321108870355,235.430750051871
1046153,-365.41586325963067,-245.91647588174212,234.94395309502266
1046154,-365.37390757795856,-245.18505170281125,234.91476957787063
1046155,-365.57319815256295,-245.6267358508797,234.91922656875798
1046156,-366.4199247489631,-245.6984484224747,234.79255509028906
1046157,-366.5391507385928,-245.8089906242673,234.76248965361341
1046158,-365.9057313906084,-245.66290336559953,234.98635609058852
1046159,-365.61424432699147,-245.9155073296962,235.70989901920754
1046160,-364.766999410039,-246.1640737820815,236.38858365193116
1046161,-365.7766850074728,-246.32736578441677,236.37456149792592
1046162,-366.35109797695765,-245.56629677392726,235.82379336177024
1046163,-366.79824151862465,-245.46653715877534,235.9887070518443
1046164,-366.3694825138259,-245.79585751466914,235.74261872858168
1046165,-366.990303311663,-245.64783238883592,235.7028746997093
1046166,-366.7143162724763,-246.0755794938559,235.9027367187009
1046167,-366.451224601229,-246.3664094826161,236.03735834732996
1046168,-366.70464560916827,-246.45491436210622,236.3399153238667
1046169,-365.9348243980851,-245.48376459431572,236.30490928752144
1046170,-365.69184688618117,-246.3318392858916,236.1489073680004
1046171,-366.6235230335924,-246.93312748953608,235.61909090234525
1046172,-367.03091244752517,-245.98034444323042,235.8672753210596
1046173,-366.66090156152524,-246.0240320368053,236.35639209527903
1046174,-367.1399314090298,-246.21920704279012,235.14805281801378
1046175,-367.8411852299394,-245.51890007574437,234.8734062293296
1046176,-368.1786392866168,-245.4984837997141,235.15474072340018
1046177,-368.0850400822852,-245.1674336778045,235.4273651123033
1046178,-368.3660573144272,-245.76837807836895,236.4180775041389
1046179,-369.2907410983759,-246.07973056946986,236.64039833790974
1046180,-369.6454826205758,-245.96307814979417,236.48654025636836
1046181,-369.86703667152125,-246.1545382211775,236.65897225234502
1046182,-371.0157480191278,-246.427350866466,236.0049334515087
1046183,-370.5566317718086,-246.52723811055395,236.44337851465994
1046184,-369.93624403498694,-247.0756780330632,237.18309890444897
1046185,-370.3871477448389,-247.0358910471766,237.47036707450147
1046186,-369.74964228542416,-247.09551853921602,237.5929722091709
1046187,-369.68850220648693,-248.58539129536226,237.62461037625798
1046188,-371.0099511164852,-248.97547984387646,237.81580191315686
1046189,-371.5689613365703,-248.86006221124654,238.25221881853628
1046190,-371.78253519574224,-249.5895924475888,238.43600240335925
1046191,-372.1902898262586,-248.7136471879963,238.40999604504992
1046192,-371.7852636123611,-248.88264263996308,237.98153681729138
1046193,-372.4126240209448,-249.0664114427547,237.43275513284348
1046194,-372.34570356033885,-248.40995537577808,236.4730940169241
1046195,-372.10436028842236,-248.91300349973324,236.8367983575329
1046196,-371.4423884525063,-249.3715493503443,235.8299227264443
1046197,-371.8626035334055,-248.70592122407845,235.38489680167746
1046198,-371.5699556335341,-249.08604268777358,236.72009938280098
1046199,-371.4866207627881,-249.5566930471627,236.81838126328242
1046200,-371.4145041510608,-250.10081606287153,236.95663454033985
1046201,-370.61675824605175,-249.61337848079856,236.32957445698182
1046202,-370.19160993144357,-249.75239655180954,236.09909720467041
1046203,-369.99233139612227,-249.40272601660894,235.93618121663752
1046204,-370.0380104338979,-249.33418418806716,236.70648514265386
1046205,-369.87685155964766,-249.65474207911623,236.1228803601062
1046206,-369.6875316325617,-249.81078602721843,236.57469482577562
1046207,-369.41815910879143,-249.6463159280814,236.16407254623792
1046208,-369.91220186172876,-249.93721619810398,236.84911372227558
1046209,-369.9998303945995,-249.52762676031406,237.91802403217451
1046210,-369.84843321187105,-249.35689528344207,237.73377648059153
1046211,-369.3236384685,-249.40124940074557,237.694361956534
1046212,-369.67952654564266,-249.72013542114897,237.33834746142372
1046213,-369.038523591048,-249.1428411751456,236.5229318587261
1046214,-369.36278056978006,-249.13143685572447,236.31379095422471
1046215,-368.78850008678035,-249.83808499921724,236.9727258268968
1046216,-368.4554724086659,-249.50343283688483,237.0551467899625
1046217,-369.07799163196665,-250.13099629846684,237.29904602663956
1046218,-369.1306586634932,-250.22030308102396,236.9772288767433
1046219,-368.7201397798816,-250.03409116322894,236.45428514904418
1046220,-368.7517101788262,-250.62791578476813,236.85760179206468
1046221,-369.18862549682973,-250.39797421241437,237.0339432896367
1046222,-369.0039175063267,-250.5940526805247,236.78945056239579
1046223,-369.39603846366475,-251.02670505581636,237.14169973620204
1046224,-369.8773162586528,-250.99616625196887,236.15993842392163
1046225,-368.6920102781161,-251.03103508601401,236.51327974047618
1046226,-369.13946858023786,-251.2668652667767,236.6010270364088
1046227,-369.02624777671105,-251.64983338611563,236.2863121323145
1046228,-369.76420845692206,-250.83818854605087,236.71583534220323
1046229,-369.7250019996525,-250.80051976227006,236.86678723004655
1046230,-369.13605771736275,-250.9810545243776,236.9791313989182
1046231,-368.9032754166585,-249.94596681197402,237.36657098382975
1046232,-369.1298295791827,-250.06636427979697,237.43947561160113
1046233,-369.57557203663004,-249.2150593642904,237.8844724436553
1046234,-368.96948121267826,-248.91354832740393,237.30909083373032
1046235,-368.77160062571494,-249.67243504119878,236.8645887110028
1046236,-368.21672602208577,-249.9734678304011,237.1565501306722
1046237,-368.2967563389522,-249.8419379651889,237.47263311096688
1046238,-369.17247321701456,-250.32981777511256,237.77939650275584
1046239,-369.02504553681206,-249.73745479437292,237.12868511067714
1046240,-368.68417779291127,-249.7350839514479,237.6794139878023
1046241,-368.0273733993681,-249.8303432597543,236.37436404142844
1046242,-367.3368929158532,-249.42893033578758,237.059846325662
1046243,-368.11879673602573,-248.74334094600354,238.0571339979467
1046244,-368.0158277296761,-248.4710202032366,238.77308345493876
1046245,-367.6741873218602,-248.78280334381708,239.77142011308013
1046246,-367.58791260447737,-250.1689709439118,239.99970648009494
1046247,-367.5767574624651,-249.07415879321348,240.24191529560932
1046248,-368.2689115460971,-248.90809388039202,240.14619653994487
1046249,-367.9401416183993,-248.69800313506784,241.05809956109988
1046250,-367.1867759668298,-248.4696211138715,240.91280595680786
1046251,-367.8045962364987,-247.98992877125247,240.91334217670715
1046252,-367.71622979058264,-247.55931760995878,241.21359728443375
1046253,-367.6808480252489,-246.61934842724753,240.51347159696888
1046254,-368.13638585722896,-247.31225258115091,240.42453639975275
1046255,-367.9332591611374,-247.1665970032482,239.86987585263304
1046256,-368.3630528012489,-248.23131648101807,240.2783325499318
1046257,-368.1241106253493,-248.32247605266193,241.04455221796903
1046258,-367.7573811596402,-248.24986991308444,241.70090369996765
1046259,-367.8374967277914,-248.0034439360043,241.6293257924094
1046260,-367.5430967616555,-247.57249297261492,241.6636243617921
1046261,-367.5625621287639,-247.39950083323845,241.38179735694382
1046262,-366.85351310780067,-247.49615839220112,240.65916476948934
1046263,-367.010635907014,-246.69310502852926,241.07947036880643
1046264,-366.8901339185451,-246.47392291570267,240.88916715888573
1046265,-366.34992475353465,-245.8085415341469,241.52570003762634
1046266,-366.6704046458093,-245.25991714393493,240.93598284384922
1046267,-367.55413186854116,-245.48247837698364,240.63784923266238
1046268,-367.30588914961595,-244.96278533695033,241.35420070584115
1046269,-366.6803865367922,-245.46630174836977,241.45221575946917
1046270,-366.2092830223352,-244.84605342479898,241.45457041724268
1046271,-367.0321144775755,-245.08709440202017,241.00427905257166
1046272,-366.6308703428984,-245.38760850602281,240.18167470495564
1046273,-366.9951683835674,-245.73961602636894,240.91481898278803
1046274,-366.78051441603134,-245.96953636686862,240.83923158470455
1046275,-367.18946558907487,-246.15123879007885,241.81217997097716
1046276,-366.790209021461,-246.41085755692185,241.69049760607203
1046277,-367.1795818579757,-246.20948449494907,241.27934244761545
1046278,-367.09859964763007,-245.35534145008333,241.43060230712834
1046279,-367.0403469932565,-246.07434439914869,241.54060807605174
1046280,-367.3102502157149,-245.3711663307467,241.1267785304061
1046281,-368.15386757154766,-244.76754487920746,241.23951100861032
1046282,-367.2280459338951,-245.23495468744045,241.82751363363104
1046283,-367.5328057435264,-245.62988318993004,241.8769952128543
1046284,-367.1137597674112,-245.61274014898487,242.2488264329248
1046285,-367.3539722074471,-245.689315321641,242.63617030826853
1046286,-367.59970366866617,-244.5550137259431,242.1415722640908
1046287,-367.4654005095022,-244.45604326361052,241.66018171614704
1046288,-367.25091990798467,-243.74917251146093,242.17667864056432
1046289,-367.5856318601821,-243.4218418253049,244.22137364955353
1046290,-368.15097255731837,-243.92379173736012,243.24112276642705
1046291,-368.3854450647567,-244.54583162488157,242.48928042633608
1046292,-368.70167364743946,-244.41313625460586,242.68706335680616
1046293,-368.4092923933751,-244.49770876867848,243.05940949375716
1046294,-368.40787857228514,-245.86664596024042,243.65750176459895
1046295,-368.92966274167156,-246.25944996066647,243.67579043806396
1046296,-368.50754084504115,-245.79703763980825,243.64380695548863
1046297,-368.0648538046986,-246.13442444615413,243.9244386637816
1046298,-367.7258260553645,-245.5449332776282,244.13544732392816
1046299,-368.01456471786844,-245.72030990006914,244.80723203324365
1046300,-367.8600291231019,-245.4705710601794,245.57278936714445
1046301,-367.8686622871488,-244.48990687768713,245.00327385550042
1046302,-368.66267108450904,-244.3863406537073,244.81402344792096
1046303,-369.15119855995334,-244.4857478604328,244.51111862258293
1046304,-368.14335768197947,-243.93639066953705,244.89845369988194
1046305,-368.372130813914,-243.22333394552817,244.5070992183928
1046306,-368.48050941440164,-242.6002670462014,245.9146164671804
1046307,-368.5912371434754,-242.50069564321166,246.44584196613624
1046308,-368.16744951713207,-242.4362907172876,246.50044085036274
1046309,-366.8979885106642,-242.9854626974273,246.89590754755437
1046310,-367.26822178496707,-242.08880495318664,246.71748081184265
1046311,-366.86339261843636,-241.27411036132344,246.87395569263273
1046312,-366.77082471750145,-241.60560217129677,246.90740539138815
1046313,-367.74725684592977,-241.78648866039458,246.9866219673017
1046314,-368.2349225931289,-241.45977359227984,247.0310229786078
1046315,-367.02307168424176,-241.4427609565097,246.08111798128039
1046316,-367.98998442266253,-241.21468187106254,246.87369895388784
1046317,-368.40006793194055,-241.2380353250556,246.69445528830053
1046318,-368.4500277952152,-241.9654393172545,246.67135694181565
1046319,-368.3847934477685,-241.90981641823265,246.86398096139573
1046320,-368.5992943141836,-242.6480260544592,246.88163673160838
1046321,-368.41673770689016,-242.63212717006502,246.28156904947173
1046322,-368.1754996674237,-242.41937973704495,246.18548424549263
1046323,-368.78528055877615,-240.8001004538617,245.96354706481424
1046324,-368.79348233630833,-240.76179327238054,246.46588347542541
1046325,-369.005827263395,-241.0050753667974,246.68274486766077
1046326,-369.06477469427296,-240.28311837323773,245.85043795267126
1046327,-368.8991176027447,-240.63466298239348,245.39983665678457
1046328,-368.2977831848947,-240.4952480747834,245.92841681391783
1046329,-368.5483462994339,-241.0615100217897,245.90485118102967
1046330,-367.88066672818337,-241.29879175093498,246.07964929649856
1046331,-367.50148480749266,-240.3960033686258,245.96103088401873
1046332,-366.03662749955976,-240.26793150682195,245.47977447329941
1046333,-365.57417012193764,-239.934531451696,245.55429080949526
1046334,-365.76650848938556,-240.04313030074726,245.343213622974
1046335,-366.12047554709596,-240.45527016710557,244.09783760711352
1046336,-365.5678976775303,-241.2797072569573,243.80985140301064
1046337,-365.3508841784987,-240.00140764805056,244.5635537565114
1046338,-365.42161412800215,-239.59183164621626,244.84775293841483
1046339,-365.2865591330652,-239.79518933599792,245.51961905353613
1046340,-365.5084819637343,-239.71568660595125,245.88375583425824
1046341,-365.67543258471494,-239.58001112429585,246.103642439985
1046342,-365.9628208824375,-239.6423593207632,246.66430242504504
1046343,-365.67820020053546,-239.64884273221395,245.91243023913864
1046344,-366.07115346456925,-239.50272438237462,245.85073074328923
1046345,-366.2437507202764,-240.21620219602505,246.13899788368084
1046346,-365.9349313990865,-241.08356116257917,246.6834331192369
1046347,-365.86902976037754,-241.2684689208928,246.47487135103458
1046348,-365.53961055713256,-241.5378978723696,246.80262565325364
1046349,-365.20789045435987,-241.44982189141484,245.82415010342604
1046350,-364.8500770440733,-242.13196994546172,245.49569476214396
1046351,-364.6738097262504,-241.58301553322056,245.3497717700398
1046352,-364.51244080720073,-240.3777267290285,245.05740497974313
1046353,-364.0413717108245,-239.95899863985505,245.15099673037716
1046354,-364.1052550223156,-239.74345493174607,245.69195970355779
1046355,-364.3013654668084,-240.36032191356978,245.82778879269208
1046356,-364.0706106514829,-240.76309809556724,246.382462937625
1046357,-363.52700391005095,-241.94497619169948,246.16094493835035
1046358,-364.082771085753,-241.467428768211,246.15028454506194
1046359,-364.1369389331165,-241.29864632354628,246.08541809026894
1046360,-364.0994599578912,-241.29955155990118,246.1958254822026
1046361,-364.6437919649523,-241.96153136585392,245.7841071378549
1046362,-364.236488339817,-241.9766076220209,246.02032414468266
1046363,-364.60472128596524,-242.21509429908497,246.9690973395953
1046364,-363.03191944440135,-241.65674269211567,246.5299429625981
1046365,-362.7528698981295,-242.28257213724294,246.58059940192916
1046366,-362.4761255945042,-242.33849110692577,246.11818178881143
1046367,-362.0308563154483,-243.19295495215587,245.54426368566158
1046368,-362.97426651129473,-243.4938196716869,246.0069000482782
1046369,-363.18104235108416,-242.7854305287418,246.75262101996412
1046370,-363.5048318190828,-243.34058505834906,247.24279975345365
1046371,-363.56878758428394,-242.2816680553434,247.35998643855456
1046372,-362.83959940575147,-242.36898597749385,247.03860542612978
1046373,-363.0821475813238,-241.88264087759094,247.28165396829493
1046374,-363.7448762330257,-241.63353004549055,246.62838192263808
1046375,-363.6127684237549,-242.15086957352116,246.31951381786956
1046376,-364.0202206410615,-241.6291673718703,246.17655295307097
1046377,-363.75225025636473,-241.65288398009497,245.37827465467456
1046378,-364.0378422172207,-241.04694516092434,245.42404176583344
1046379,-364.0390513689895,-240.41674091132825,245.49211175346775
1046380,-363.55787522019165,-241.0281083318306,245.6742204902902
1046381,-364.0922576715523,-240.57108029782046,246.00185555736246
1046382,-363.69497930458834,-240.81687055146665,245.8962282365509
1046383,-363.8339166894949,-240.35941141190028,245.891037386292
1046384,-363.994988607392,-239.6028829666858,245.8858905349273
1046385,-363.77467302038065,-239.78693936028634,246.00391722306134
1046386,-364.47135243194265,-239.46779248664117,245.2627795625986
1046387,-363.9853538312153,-238.66701255402015,245.13371241168636
1046388,-364.1000441297632,-239.42497928190505,246.16480739665644
1046389,-364.0589405596522,-239.17276029693082,246.6362943078286
1046390,-364.18160655845134,-239.08076025384887,246.71543437959156
1046391,-363.97736441835735,-238.91395030680454,247.02606561958947
1046392,-362.7006767201649,-238.54068758653455,247.58764150120203
1046393,-363.10620165588745,-239.34566915722596,247.26190853526276
1046394,-362.8548099757174,-239.52101677696638,247.33343045717672
1046395,-362.94041034674996,-239.9266087415141,247.78574012764759
1046396,-362.5523390613842,-239.71246375416843,249.134915739899
1046397,-362.9821559361771,-239.9607567566031,248.99397818809842
1046398,-364.05375328322566,-239.73574427794185,249.10109818180572
1046399,-363.22400826432164,-239.53297680582986,249.3570621563034
1046400,-362.0462677358454,-239.7363634456806,249.57922127515576
1046401,-362.21659139799584,-240.33544656171827,248.60982922940443
1046402,-361.93193493149084,-240.31183568408383,248.41892110825356
1046403,-362.21908566937225,-240.97250665658046,248.61074940711964
1046404,-361.88440959184726,-240.60566390170692,248.8291451052901
1046405,-361.67580388091864,-240.64702949862644,248.62377191566873
1046406,-362.0182540333684,-239.973536899789,249.09189182323908
1046407,-361.1038598509569,-239.0698214319633,248.16040908644393
1046408,-360.99790230911,-239.29295484888286,248.6384032779072
1046409,-360.1493674082078,-239.18169248758144,248.5287294056221
1046410,-359.79442343706995,-239.12922688713797,248.98539710212705
1046411,-360.39378488404105,-238.4890911704521,248.65816787755585
1046412,-360.93174363810664,-238.30301486924733,247.81938644481664
1046413,-360.72327161068836,-238.59863494607646,247.95004296735277
1046414,-361.43968433455933,-238.71099773244674,246.898982507577
1046415,-361.610132175765,-237.9514403426595,247.02377002327412
1046416,-362.49058684734814,-238.86011727605438,248.5114246844932
1046417,-362.8630726027458,-238.4014205220731,249.01450429393626
1046418,-363.74621119240123,-239.07357751643838,249.3277661258748
1046419,-363.85087364681374,-239.77662767544072,249.97379765972667
1046420,-363.8181893959934,-239.5016855501067,249.43814393678653
1046421,-363.9272417904035,-239.42836705279947,248.77665636166475
1046422,-363.7332992561123,-239.36585887780876,247.2646824219819
1046423,-363.4712721930237,-239.01672300630648,247.52789982527003
1046424,-363.2308419951774,-239.3006955310443,248.21799114928402
1046425,-363.683894575758,-239.4488367151726,248.35867654625042
1046426,-363.2768181635842,-238.83170299252586,248.22993166144275
1046427,-362.9821058838127,-239.11810268376973,248.0282113046044
1046428,-362.89068581448413,-239.22557012239062,247.4590056752769
1046429,-363.2101899756116,-238.43334138165653,247.3401258555203
1046430,-363.02158916528555,-237.97189666067098,247.11148823685184
1046431,-362.4959376095889,-237.71064757235416,247.49604067426608
1046432,-363.24020619065726,-237.94841354523518,247.42866648019046
1046433,-362.85367578096873,-237.9296795880104,247.3531524383425
1046434,-363.7275530035326,-237.56615979150615,247.18191255572734
1046435,-364.6280196175751,-237.77017575919962,247.25581532200016
1046436,-364.14476619373875,-238.13480177093885,247.1372148514594
1046437,-363.9057911232451,-237.83963746197543,247.60663421194624
1046438,-363.93024283825144,-238.81314611800937,247.21211928287377
1046439,-364.01099306981627,-238.75923835389338,246.81973855783065
1046440,-364.00131312539776,-239.20228342978137,246.1438322573621
1046441,-364.5698189181358,-239.98811376676605,246.89450342054184
1046442,-364.4215805584473,-239.59310155098012,246.53434769632918
1046443,-365.34502766837136,-239.37655746980334,246.36040972945375
1046444,-365.12724353851047,-239.57705147463219,247.04060865469125
1046445,-365.0215412345283,-240.35172499594256,246.54638943481052
1046446,-365.36894608492094,-239.87310256851566,247.79119242965464
1046447,-365.8802601924597,-239.81967082262594,247.97576301201283
1046448,-365.81617202511336,-239.24292346888885,248.48120575706346
1046449,-365.87031156062403,-239.27952645749835,248.67355956004877
1046450,-365.60494581127114,-238.55116758636643,248.20209123174462
1046451,-366.11836124868256,-238.8534294123519,248.79518246307583
1046452,-365.87940872204337,-238.9512501231991,249.196753251372
1046453,-366.3847988823545,-238.94914499848915,248.90676423625032
1046454,-366.4314891588646,-239.20346932484975,248.40203638218722
1046455,-367.01142179609985,-237.70083991339516,247.40040931878582
1046456,-367.84869213449093,-237.41151518367755,248.21462796090802
1046457,-367.1786115777233,-237.85403039382393,247.90561786676702
1046458,-367.4594818429315,-237.82158457420098,247.72183146848263
1046459,-367.2112814003705,-237.2985526842844,247.38902897264782
1046460,-367.30837389615687,-237.82176220057545,247.02677122882193
1046461,-367.6329996030372,-237.67029808090916,246.9014409332607
1046462,-367.2372804504816,-236.79736510867156,247.84303046482623
1046463,-366.14515834103224,-236.5056194974357,247.79447274366586
1046464,-366.1875289514726,-236.9865512038452,247.1138264336624
1046465,-365.9690507844565,-236.65429017681316,247.21283645415113
1046466,-365.8873787184806,-235.9560633019539,247.03159865226561
1046467,-364.99534298554363,-236.60352608996524,246.59355529957693
1046468,-365.1923048240096,-237.08241737323027,246.4762925206024
1046469,-365.93473473250845,-237.53501126839618,247.55870323211687
1046470,-365.5655527996588,-236.82051893947218,247.99452979061238
1046471,-365.77811753138866,-237.6384697869423,247.96702854914437
1046472,-365.7494326919817,-238.12954369354006,248.99547040846358
1046473,-365.95913205710036,-237.56877380113858,249.50750078611813
1046474,-366.8671613620739,-237.38770065740644,249.94327973444095
1046475,-367.1873041221003,-237.9344060308657,249.51729194113045
1046476,-367.54935638761344,-238.15517982908912,250.04162686176804
1046477,-367.4999178761565,-238.9492482190886,250.00713352609972
1046478,-366.97086043957904,-239.02082411081415,251.33761126250508
1046479,-366.42494731861126,-239.0894010415686,251.53781488351214
1046480,-366.31921021632667,-239.27311513696085,251.25237170565768
1046481,-367.16149092852976,-239.04096274983985,250.65450046859732
1046482,-367.0214686538596,-239.18114408168688,250.24933903264983
1046483,-366.63596852098857,-239.50211775059182,249.9991999880352
1046484,-365.8205848209718,-239.7518412405288,251.08992855481412
1046485,-366.02349895232743,-239.95042527336176,249.7325041902881
1046486,-365.788474829424,-239.50716068632946,249.8370266176372
1046487,-365.64448715036605,-240.10488398154493,249.30510674481832
1046488,-365.03827614778606,-239.70448505474604,249.48258112920854
1046489,-364.39055915227846,-239.34776473059185,250.06911889552435
1046490,-364.5760160557066,-239.17920326312247,249.86753203069938
1046491,-364.4191526967858,-239.62861757914084,249.93971553532913
1046492,-364.1903584644412,-238.99517579670402,250.26866826350488
1046493,-364.41328199376176,-238.24099018067284,249.88637703735992
1046494,-364.68644787619064,-238.4445699639734,249.87218576054562
1046495,-363.83268836653184,-239.34081657821739,249.80099419108714
1046496,-363.9414433860654,-238.6804591067932,250.05530036945052
1046497,-364.70767790989913,-239.38258953484308,250.006800253081
1046498,-364.7782376642321,-240.0577408978256,250.1553346475774
1046499,-363.9431606587709,-240.5661558598616,250.45297340575883
