sample,gyro_x,gyro_y,gyro_z
1065500,-259.6525423350857,-327.9892761671607,263.27128515966916
1065501,-260.06921491970763,-328.0186456645387,263.80493982919614
1065502,-259.04771345038034,-328.2205984368232,263.68599545492947
1065503,-258.6162041301945,-328.8558859362635,262.70475107081717
1065504,-258.36119519806766,-328.61709701925145,262.2229549922268
1065505,-257.6738167280451,-328.5569814573718,262.2489349780182
1065506,-258.3640685822675,-328.1971390357385,262.4022219463193
1065507,-257.9101952768732,-328.2698871012729,262.5867693527559
1065508,-258.0562249942095,-327.6542935023229,262.1426410318783
1065509,-257.4110755892612,-327.40673131304754,261.2455726709012
1065510,-257.0705398021413,-327.38095415445645,261.20255568926143
1065511,-256.981141823067,-326.7193686916245,261.88479823745854
1065512,-256.62906510150714,-327.79750979281033,262.32945245694793
1065513,-256.7154179671159,-327.90799590652455,262.3116953509583
1065514,-256.5818285705278,-326.5448017555269,261.259059729869
1065515,-256.7427584783741,-326.40750819243635,261.35165931439803
1065516,-256.99767884871545,-325.7850876263588,261.16504787786675
1065517,-257.9003693627955,-325.9461362381125,261.58789815097583
1065518,-258.3250265925748,-326.22804530044823,261.20694161861576
1065519,-257.9925579026141,-326.2677960334326,261.5440118026463
1065520,-257.9935110918567,-325.94196109351697,261.2458989223841
1065521,-258.21458819845793,-325.76593490922374,260.9176748542089
1065522,-258.5105557972691,-325.5011228862579,260.38639766323854
1065523,-258.105747877729,-326.41754909990675,260.6564401451993
1065524,-258.54879705436616,-326.2968952215369,260.03713213525964
1065525,-258.3711723942581,-326.2395491495392,260.0441527933616
1065526,-257.8653679556647,-326.25066343881747,260.2666269634633
1065527,-258.4483559151614,-326.0526620912879,259.38050096753955
1065528,-258.53874684491393,-326.28564138926436,259.54465799008403
1065529,-258.4114390964367,-327.15390067629005,259.39607656000953
1065530,-257.7699033145429,-326.41765072666055,259.19634139506263
1065531,-258.1472523926757,-325.74623798429093,258.8486155291949
1065532,-258.0247538690139,-325.49733972036785,259.1638519566058
1065533,-257.5928061945602,-325.51256173448155,260.36830736707185
1065534,-257.22835537039344,-325.7920662530456,260.5686542221367
1065535,-257.1461356473876,-325.50352832438864,260.9014531536536
1065536,-256.7867477777567,-325.5355279769469,260.6047910358105
1065537,-256.70316301578725,-325.256820193105,260.69988747814836
1065538,-256.51903763860173,-325.53692329472955,260.9540970083818
1065539,-256.1987754197098,-325.52695752716454,260.9623788183671
1065540,-255.22274434535,-325.38013796340744,261.19068301902865
1065541,-255.84942606977324,-325.4744517418934,261.2270687467851
1065542,-256.06382026920016,-325.5913581558232,261.6811783702085
1065543,-256.2987742149422,-325.15862802346123,261.7874235440632
1065544,-256.1056822057409,-325.7694484327725,262.1517178049443
1065545,-256.0619650230306,-325.6658403724454,261.95217315766695
1065546,-256.57235326309467,-325.47202215306237,262.1479720001976
1065547,-257.3613377863148,-325.3246355991055,261.78342432518343
1065548,-256.9828130183017,-325.1284445142226,262.2657397755756
1065549,-255.77069272398492,-324.04540177782405,262.2946692935392
1065550,-255.98515591860863,-324.7717337042214,262.93658700692873
1065551,-256.74093258879367,-324.9698685093009,262.87358405461396
1065552,-256.85544154885844,-324.78322325242226,263.3259655041676
1065553,-256.2521217843655,-324.7096204879766,261.91103769235366
1065554,-256.4915450245201,-324.1904243168079,261.99678514579773
1065555,-257.04212925955636,-324.0614923871204,261.76773336460013
1065556,-257.4554158241601,-324.17377518444164,261.8226388764818
1065557,-257.00871831069935,-323.53703472521266,262.58829122819157
1065558,-256.4024251938136,-323.9597888128541,262.36222662422597
1065559,-256.5621565928223,-323.23352873104676,262.7061396123735
1065560,-256.92937700347454,-324.02519637396534,263.4094468499165
1065561,-257.5598711541737,-323.9340064368631,263.4076067635126
1065562,-258.59066521421073,-324.00027166926316,262.77426847690117
1065563,-258.93160751344396,-323.37381971439413,262.54215520010115
1065564,-259.2529684763867,-322.7396581362283,262.7266441198363
1065565,-259.26163629320706,-322.04706581203396,263.4404316269848
1065566,-259.22495866651764,-322.00007788783415,263.0072773947887
1065567,-258.9320913562656,-321.3110038905583,262.97595843189515
1065568,-258.08533444878873,-321.01180000642586,262.51213573779035
1065569,-257.56922038464967,-320.5945022201306,261.69742078952015
1065570,-257.6703426863151,-321.3734528971666,262.74358888859257
1065571,-257.3589016761993,-321.7173034605819,262.15601232269285
1065572,-256.39070498099176,-322.06444124113193,262.48547556230204
1065573,-256.5504812579425,-322.6253984692911,262.90735733619607
1065574,-256.653529115912,-322.41959208334004,261.9763542365672
1065575,-256.2136074865943,-322.17491381276426,260.8132461954617
1065576,-256.34160338679266,-322.5839941289238,260.53023677554023
1065577,-255.5911835889061,-321.0783383996836,260.8358406373187
1065578,-255.17079125518782,-321.00157233187343,259.7919895853908
1065579,-254.85735433907382,-320.628891349327,260.52488588042485
1065580,-254.11983906407016,-320.8140013775304,260.6211486329274
1065581,-254.9915568255723,-320.7716797835055,260.2069389350015
1065582,-255.20409327272202,-321.1742510425139,260.4972231695909
1065583,-255.8940276039312,-321.48948446085853,260.3119965124895
1065584,-255.40555404433755,-320.9276468855343,260.65090876533895
1065585,-255.64841042879485,-320.95872981526196,260.8646498674118
1065586,-254.44118354697054,-321.26481348152976,260.3596979796166
1065587,-254.16657480028616,-321.0115781065445,259.922299111318
1065588,-254.17985780084175,-321.04680929968555,260.24380666237084
1065589,-253.95853977938557,-320.701057370651,260.5108952443751
1065590,-253.7865799926988,-321.5096136910319,261.21259060757245
1065591,-253.98560198767268,-321.31345387389837,261.11306023136245
1065592,-254.23179470350115,-320.926433098641,260.99138751382844
1065593,-254.1326339569429,-320.9716825663887,261.5518949406934
1065594,-254.78365649688172,-321.4081091651596,262.05808916924246
1065595,-255.02068118343087,-320.5153834020396,262.6709628051794
1065596,-254.99784936972597,-320.1418179522242,262.2133718984657
1065597,-254.90794135601163,-319.9168013008955,261.64687791736833
1065598,-255.7415258102327,-320.78163684413227,262.70536172077857
1065599,-256.1891603846598,-320.15986964718684,263.02828818219695
1065600,-255.89807102699086,-320.4523782128719,262.05443368929014
1065601,-255.95331227341654,-321.10171893579064,262.69357603036445
1065602,-255.1946668312848,-320.7836638041206,262.6353301877633
1065603,-255.7423260729975,-319.89426325727715,262.5845664414579
1065604,-255.6583554140072,-319.3574147779429,262.11841769232643
1065605,-254.9705566881116,-319.0400478117582,262.1683594082413
1065606,-254.6769264238821,-318.79907302028494,263.2608760093073
1065607,-255.48547212701848,-318.25470011693193,263.1963197479209
1065608,-254.67771503387274,-318.2882656617868,262.87347542436066
1065609,-255.95285078299855,-318.84962413295085,263.0507609497324
1065610,-255.4900081748074,-318.7113556789762,262.2554175066682
1065611,-254.90250076756584,-318.9066747123206,262.52301468621926
1065612,-254.96374548803104,-319.18365025781713,262.92710045153103
1065613,-254.6670308827372,-319.3250603975556,263.32868293574967
1065614,-255.29586521871892,-319.78586417377903,263.7216829483977
1065615,-254.89927818831842,-319.6420137403006,264.1067464622403
1065616,-255.05717452651828,-319.0337665121436,264.0861808743879
1065617,-254.95760481350015,-319.1811620830647,264.15483792151036
1065618,-255.67002423130685,-318.95295163711046,264.00809130787496
1065619,-255.2060100021076,-318.34061728508885,263.6220517308544
1065620,-256.07287128571863,-317.902548766886,264.0246773495
1065621,-256.20440060450136,-318.3380484615765,264.6740987949497
1065622,-256.40569890442896,-317.6404499667865,265.24188628434285
1065623,-256.3539260786274,-319.0380911513921,265.01704898100866
1065624,-256.58313428003027,-319.3970242069998,264.764497371011
1065625,-256.31301941079306,-319.96667191922234,265.10968857757996
1065626,-256.91323954604354,-320.1419987316516,265.0756276231101
1065627,-256.51976018697223,-319.9747768308098,265.0587927710734
1065628,-256.0956018055225,-320.9132766717026,265.34173386384
1065629,-256.29276208931645,-320.17511139508713,266.13854367495105
1065630,-256.1036529915209,-319.4985727971259,264.810739774172
1065631,-256.83148392476113,-317.9305012686362,264.2715009365259
1065632,-256.4039366592415,-317.68490016990654,264.3309133619267
1065633,-255.8217569523024,-318.081313698396,264.42406355750586
1065634,-255.26987287090333,-318.57904455126817,264.37746060767756
1065635,-255.12973329578287,-318.84145984604544,263.71099235100223
1065636,-255.58355968748631,-318.991086485314,262.7634200764882
1065637,-255.33516382374202,-318.88686025648343,262.2750627977296
1065638,-254.6472230129308,-318.8071997626751,260.8665264602776
1065639,-255.18516450606273,-318.1110179450985,261.09868967045685
1065640,-254.21214795486398,-318.51058611388174,260.78288699963616
1065641,-254.4680057750761,-318.4435892936042,261.0230205998232
1065642,-254.5915496845635,-318.3504080353878,260.98548175515623
1065643,-254.34745580110783,-317.9928320883164,260.3175356640404
1065644,-254.12002450315907,-317.849622365408,259.92737444695223
1065645,-253.8261101186988,-318.890248334631,260.9206001573958
1065646,-253.56015039635278,-319.60100230357216,261.68344052291565
1065647,-253.43484250435267,-320.0336871944859,261.7327354035224
1065648,-254.00366867227038,-320.31115198121336,261.9656592192313
1065649,-254.58301303452035,-320.5454052338539,261.89392452547685
1065650,-254.33746750970622,-320.9494325560984,260.35138121268113
1065651,-254.6219732321783,-320.7835473479349,260.5750435707402
1065652,-254.3816793943366,-320.0343603158647,260.3558065433276
1065653,-254.22848921163688,-319.895493604868,259.8079386761773
1065654,-255.63971117393982,-320.1358095713864,260.566970357915
1065655,-255.2368689265162,-319.07387275423946,260.0042531429537
1065656,-255.15392526598185,-319.2267730040868,259.3941390238664
1065657,-254.58695995614025,-319.31554089905063,258.98511379690785
1065658,-254.59510159297974,-319.4376312392137,258.5443568443335
1065659,-255.37782083387557,-319.7012264655322,259.3767665559731
1065660,-254.9997336972094,-319.8970474024621,259.8220691581011
1065661,-254.99527235215746,-320.30355652726394,258.40138111185473
1065662,-255.66918886212565,-319.76997906003925,258.22611267159334
1065663,-255.86102910069448,-319.96458710201074,258.26553457147577
1065664,-255.80259083452083,-319.9031003103132,258.71721371172174
1065665,-255.11439952211288,-319.44944857144054,259.99406316970766
1065666,-255.27809666788366,-319.7106358209341,260.44728952182294
1065667,-255.10923570120522,-319.7731349151159,260.4593779048219
1065668,-255.87782558830685,-319.4116745816227,261.18306390613907
1065669,-255.57830812606656,-319.93196097312193,261.15217146412357
1065670,-255.71497550063015,-320.10728721161433,260.8189106273887
1065671,-255.70121888089463,-320.0181095941731,260.04919719990994
1065672,-254.87440221352242,-319.89654577046156,259.44821028925503
1065673,-255.01651873595324,-320.0586610386224,259.45151818837905
1065674,-256.2962861673901,-320.2332835325955,260.0002739510705
1065675,-257.0438030222539,-321.37397613709595,260.0402727523793
1065676,-256.47195536583416,-321.72628409227013,260.2366024887607
1065677,-256.35026191565703,-323.0307979199498,260.8379259432943
1065678,-257.3005257869201,-323.2121962351901,261.3620598580647
1065679,-257.3710628358144,-323.10861771628987,260.7045622359825
1065680,-256.9435032951117,-323.0765096323948,261.10601257289466
1065681,-257.45904410807657,-323.45187921904784,261.0908711014992
1065682,-257.4593520780989,-322.54137051744704,260.0965182051767
1065683,-257.5592164911762,-322.91646967032494,259.39916506213785
1065684,-257.2041886112315,-322.7292157388132,258.46667427826117
1065685,-257.3928388230119,-322.61338492867503,258.1803696832127
1065686,-257.72672888528416,-323.1727967337168,257.5294489710128
1065687,-257.6400075929726,-323.6886762523065,257.4516181460059
1065688,-258.5270982632738,-323.5778961254332,258.2217990217006
1065689,-257.95089819666333,-323.4826205868873,257.8232689997307
1065690,-258.57438904888215,-323.3335806138896,258.60775596378255
1065691,-258.40250348956084,-323.2308882007501,259.40711350048076
1065692,-258.96766656866237,-323.05105863651653,259.8901036063076
1065693,-259.33859233958634,-322.891098178467,260.0347738774957
1065694,-258.89092067715944,-323.309926494813,260.75066675884756
1065695,-258.957874517868,-322.6481986297552,260.57256791393905
1065696,-258.1753880377465,-322.9186198603104,260.65337049336654
1065697,-258.18421987962046,-321.9378265320452,261.4458722796104
1065698,-258.99669138555845,-322.0469955014689,261.7600122456104
1065699,-259.7201068779573,-321.34319151541195,261.57330969025577
1065700,-259.76500270386623,-320.9114873176525,261.2979017424638
1065701,-260.2280064147876,-320.69680365405833,261.87692249285305
1065702,-260.42212422809575,-321.43739236476813,262.11510004204524
1065703,-260.2078699657063,-321.90604492529934,261.76862534514356
1065704,-260.9438529662403,-321.43236985005075,260.8560148646024
1065705,-261.14454325184334,-320.9433426037577,261.12959212729146
1065706,-261.23589238919334,-320.82635684634147,260.9968889652686
1065707,-260.922936336003,-320.3739892449958,261.1026910612747
1065708,-260.9946732101084,-319.95273521918097,260.84067898647254
1065709,-260.6356761743798,-320.91970265703816,260.5993222626064
1065710,-260.0783257636716,-321.09820835680307,260.3426375329891
1065711,-260.48700384561096,-321.5308285815631,259.99623609071335
1065712,-260.2661175071412,-321.5019528191718,259.3806545687656
1065713,-260.08410542492635,-323.4199830642213,259.9707303208004
1065714,-260.39116492590585,-323.36874459755956,260.1876095080056
1065715,-259.47194480186334,-322.06541051719006,260.4383019943571
1065716,-259.5303895411533,-322.32578339777143,260.4088470398081
1065717,-258.93040457346643,-322.8366268884492,260.75929184113426
1065718,-258.78895835531677,-322.99017028490744,261.045973723084
1065719,-260.55928637267084,-322.529603890979,260.08521104097116
1065720,-260.6925398884692,-323.059190830084,259.93752545753716
1065721,-260.6366301060066,-323.84758144773855,259.330524852271
1065722,-261.1338588559512,-323.2641557941856,259.682490766748
1065723,-261.9507443401478,-322.54853137158165,259.8211903862048
1065724,-261.736695465667,-322.8182839419896,258.7821495981183
1065725,-262.3351502321489,-322.78776391779,258.930788156673
1065726,-261.86767881412334,-323.1277302219393,257.8221556573384
1065727,-261.7043285722208,-322.8528714196804,258.771056486413
1065728,-261.5600853830457,-322.654709328651,259.1797131431149
1065729,-261.39586131146547,-322.6183999499357,259.47301345058486
1065730,-262.38569063540524,-322.49201132814335,260.00380207816505
1065731,-262.4821392857921,-321.85284649203993,259.74410053008864
1065732,-262.3769764126919,-322.4734909088779,259.3976073788103
1065733,-261.8084940506285,-322.2751320056823,258.91986759125746
1065734,-261.29005541203406,-322.1613658846758,258.6576468613133
1065735,-260.7839414785214,-322.3959010365415,259.5146981567273
1065736,-260.62378994328265,-322.7059943426824,259.2272492404871
1065737,-260.5203166075343,-323.2735252452031,259.2774515829791
1065738,-261.02373946182666,-323.0881399297354,258.29341289664194
1065739,-261.3366072817359,-322.38995487994333,258.33574300937426
1065740,-261.90453148871234,-323.3177086463666,258.05822037345035
1065741,-261.9346985117971,-323.1098238712276,257.9884931623977
1065742,-262.4453076217356,-322.75539397719575,257.2463163406424
1065743,-262.1591354435891,-323.11781955802775,257.7838688570378
1065744,-262.8295881786432,-322.9532280611078,257.7239298392703
1065745,-263.0233269469087,-323.3440281886755,257.3994846862304
1065746,-262.6528980462605,-323.54667561397713,257.2543131012371
1065747,-261.97220559706005,-323.03485145209373,258.0228077770102
1065748,-262.6017744579868,-323.2151025498889,257.5013037279483
1065749,-262.6888216281549,-324.0556277380475,256.8612561330543
1065750,-262.7806275584614,-323.88110761990845,257.3034452584679
1065751,-263.25235686652303,-324.1656993073264,257.629340245846
1065752,-262.51591691723263,-323.86639727065995,258.54565095361716
1065753,-262.7686878923441,-323.47676092312514,258.63963845121316
1065754,-262.4599639932171,-324.02261197173334,259.1717199937684
1065755,-263.1759661464864,-323.5600972658966,258.22747149964414
1065756,-263.63466070121916,-324.2194089732441,258.04994947022794
1065757,-263.9066608679868,-323.7790705828739,257.8732460242311
1065758,-263.7628235284713,-324.1061117242934,257.7816190528229
1065759,-263.40653572099023,-325.23114522786835,257.35512783893375
1065760,-262.65799119107174,-324.56530889730664,257.8977315522466
1065761,-261.9631923708572,-324.479256153882,258.6896552718202
1065762,-262.42113823108286,-325.37992016973976,258.48977015034893
1065763,-263.3813501167506,-325.037889679477,259.62478071061145
1065764,-262.88656993604695,-325.5497256211993,259.7856552700597
1065765,-262.45088005006204,-325.0019616390678,260.0412496012507
1065766,-263.7274505009011,-324.66712395118105,260.60278812660965
1065767,-263.53973380163904,-325.7051715264305,260.3124503897051
1065768,-263.82373130868933,-325.4865525763801,260.3659669181343
1065769,-264.2054789881554,-326.08775172034046,259.575729619565
1065770,-264.7086110004031,-326.518814006158,260.13540378546577
1065771,-265.1908413476865,-326.0888430143869,260.81808803900714
1065772,-264.8809251145734,-325.5135280134049,259.81771913232615
1065773,-265.3948278254275,-326.857445697774,260.68526805667335
1065774,-265.4477594575984,-327.6305427202976,260.6027283566173
1065775,-265.19912711610334,-328.0165818481823,260.9006723693516
1065776,-265.35774001351,-328.00173459252204,260.65962668212194
1065777,-266.41991012711554,-328.7612625645825,260.95412081230893
1065778,-266.5733392408596,-330.16285170131977,261.37039408354894
1065779,-266.6413117513381,-329.3437434771497,260.6028385979487
1065780,-266.1071846666528,-329.6902486105591,261.39460304256704
1065781,-266.2424461687977,-329.4901506896412,261.7248751011818
1065782,-266.65661872433776,-329.2332370692517,261.5285153382673
1065783,-266.15409470850625,-329.2077043801152,261.68654078139537
1065784,-266.8267490033638,-330.07091228200846,261.66556174393116
1065785,-266.9475257832062,-330.618612519798,262.4612951525481
1065786,-267.2392850112469,-330.8738626798249,262.1339877031923
1065787,-266.8216820738978,-330.94778734165686,261.58464374395305
1065788,-267.1639627166234,-330.703224324678,261.8278823027497
1065789,-267.4990378690662,-331.17769321385595,262.1645892138523
1065790,-268.2087337780642,-331.40221657070157,261.090688675463
1065791,-268.03128068579935,-331.6248088142883,260.8403800031829
1065792,-268.4257847597712,-331.86077867307694,260.95189432251857
1065793,-267.91096423346056,-330.90666320352074,260.44932995473357
1065794,-267.8605703224417,-331.28207330359146,260.14316086880865
1065795,-267.7678359227488,-331.8840898370588,260.79018097442776
1065796,-267.5686237977484,-331.7198355335037,260.3557648452626
1065797,-267.0918284206303,-332.2656155217556,260.44434045475214
1065798,-267.65949128746183,-332.1424295959107,261.1618319668786
1065799,-267.4918047450595,-332.2154610542086,260.48912444753876
1065800,-268.7128478809408,-332.5230834458576,259.7111695830313
1065801,-267.94413220908194,-332.7316236174502,260.3063019514823
1065802,-267.7440333143182,-332.10347077143393,260.9543543213967
1065803,-267.99990531235585,-331.1316902009701,259.9902124428648
1065804,-268.81700359570897,-332.0334610309717,260.46592273003677
1065805,-268.43047353487634,-332.03173046580866,259.5191699216223
1065806,-268.30124990243206,-332.006425943316,259.292344180278
1065807,-267.4496558276357,-331.8526685959435,260.09026033576515
1065808,-268.0512281670797,-332.05763318537515,259.7330471394715
1065809,-267.8736762699265,-332.40688952306107,260.10202999769973
1065810,-267.2322166709294,-331.91733061160784,260.05877753065596
1065811,-266.98777954739717,-332.06306983665553,259.9747765375426
1065812,-267.79187929696235,-333.1469705608929,260.56449580744305
1065813,-267.133684758041,-332.38241684313004,260.02626532905566
1065814,-266.39015901898983,-333.09458732743974,260.49401314037254
1065815,-266.9149165085774,-333.3012637433515,261.0601258135618
1065816,-267.3777470310579,-331.54798747731314,261.4273054193205
1065817,-267.0715695232313,-331.58972281380875,260.98708819174374
1065818,-265.15229174936906,-331.7554801109267,260.689158939758
1065819,-264.6823695144903,-331.4091373891402,260.64334466328006
1065820,-264.1569901299244,-331.3010832226875,259.5310290983513
1065821,-264.761412556874,-330.7986386105882,259.66186927907097
1065822,-265.20210137461527,-329.7678780896768,259.68629219764705
1065823,-265.1542951020955,-329.6216845241566,259.5407929524571
1065824,-265.48312463361066,-329.507289573409,258.977344967126
1065825,-265.6597362892256,-330.1272713896805,258.03676761171056
1065826,-266.0241287520156,-330.9517130269393,257.459840269413
1065827,-266.7331069076477,-331.5316117014549,257.98208928618527
1065828,-266.6316995981151,-331.8845133428212,257.56704875438015
1065829,-266.4437511062515,-331.6528109157339,256.81477175119255
1065830,-266.63002286546913,-331.28117600563496,256.9122119881501
1065831,-266.6162838495254,-331.4324311887191,256.51597254905494
1065832,-266.51899223943315,-331.8739087863944,256.0105681078052
1065833,-266.4009008390687,-331.55928933726494,255.90994700592816
1065834,-265.72128017781597,-332.4810717660959,256.40376438829355
1065835,-265.5906269095417,-332.3973667546065,256.4329446645895
1065836,-266.2747896479729,-332.6400399802714,255.7616608451291
1065837,-266.99091532353344,-332.8491586457278,255.80573035277155
1065838,-267.4394583316587,-331.94101002287994,256.0906662220236
1065839,-267.24872699623654,-332.0209951267032,256.4160274105198
1065840,-267.70311276713073,-331.94823179211943,256.0572972849239
1065841,-268.05167154206634,-331.3438442320273,256.15601895862414
1065842,-267.7640561860754,-331.2183499802996,255.1942577722274
1065843,-268.70444076855387,-330.6749814210187,255.4034151610692
1065844,-267.99696755402977,-330.83589509080474,255.64065547175582
1065845,-267.8924921498718,-331.0567326698196,255.07963255352502
1065846,-267.99143413155576,-331.2832705595094,255.6963902793342
1065847,-268.1189241539319,-331.29294939331413,255.96756428783473
1065848,-268.4064325291531,-330.98940826063074,256.35781870429065
1065849,-268.7207172328609,-331.53426410798954,256.69259090425044
1065850,-269.177550815446,-331.97193777497955,256.4801395105717
1065851,-268.8048838498396,-331.66638619755093,256.13131753152663
1065852,-268.3556866558752,-332.12210230502905,255.49074250842355
1065853,-268.607292891218,-332.18403712297874,255.48052495731582
1065854,-269.2866780489362,-332.3465216255707,254.8402652152
1065855,-269.7416297642557,-331.8065152523354,254.91311421883023
1065856,-269.5218544467002,-332.2132619538739,254.16822068108272
1065857,-269.63449997173194,-331.81577097212937,254.0062320476424
1065858,-270.11545025722955,-331.8508018844068,252.54029083110353
1065859,-270.3904555775597,-331.38000379490484,252.51268026716656
1065860,-269.4331916422805,-332.04927823107755,252.39825139247293
1065861,-269.36421499836473,-332.9721095821842,252.70458897289572
1065862,-269.30024195686667,-333.237601308972,252.90606509188828
1065863,-268.7396947524596,-333.20089763154647,253.1240464684945
1065864,-268.857707156127,-333.2219145082465,253.5575632274427
1065865,-268.37709060693896,-333.1552990929691,252.91048715311987
1065866,-268.5368200469601,-333.7659366804008,252.6191142604094
1065867,-268.2886575954776,-334.1001460337465,252.09945935184544
1065868,-268.6257509923272,-334.25693124933537,251.8958980754867
1065869,-268.72642812374454,-334.0513886988676,250.82534202474477
1065870,-269.39434113594666,-334.0131564518605,251.20763494788577
1065871,-269.767667734189,-333.2327264964963,250.58725730591897
1065872,-269.265505034407,-333.7042567595311,250.54032374746942
1065873,-268.62044198155235,-333.4136386226268,250.74505872180313
1065874,-269.3178357375495,-332.755816664077,251.1679700916985
1065875,-269.3838367920246,-332.7268667171454,251.10201792122626
1065876,-268.8647042337809,-333.1012605063937,250.80841418944686
1065877,-269.02650951424044,-333.3000036106128,250.6896932013316
1065878,-268.20578961766614,-332.87629583743245,248.9477029502639
1065879,-268.49882080266207,-333.11176144339413,249.10629043276114
1065880,-268.59582889979237,-333.711369982858,249.29273813476465
1065881,-268.9833266071141,-334.3026733731523,249.2386752766593
1065882,-268.70805333914205,-335.30661721092395,249.09335007788215
1065883,-268.9724828076716,-335.2087578275602,248.35673336513494
1065884,-269.4503926573678,-334.99477536460716,247.60809985651355
1065885,-270.2775993705048,-336.23089008106035,248.31479158469816
1065886,-270.20002111509154,-336.62239225401896,248.55607296071906
1065887,-270.03811928872415,-337.1011118872676,248.47053795668478
1065888,-270.1086747181235,-336.654951951795,248.01587731480956
1065889,-270.3957172921617,-336.103712258481,247.06205506232084
1065890,-269.6815193896798,-337.06549091239367,246.0727455291418
1065891,-269.39147937301954,-336.83798037813284,246.33295075548736
1065892,-269.55042511568274,-337.22739319304367,246.04670974116698
1065893,-269.1328780192267,-337.8848764363762,245.64387068424872
1065894,-268.5757654668494,-338.5247266029059,245.1066157534471
1065895,-267.37111402132854,-338.80060012190455,244.839044010391
1065896,-266.8458848065898,-339.0661920328177,244.54140596276494
1065897,-266.87237870039274,-339.0633521826833,244.17085408056562
1065898,-266.7565019792706,-339.1605961233355,244.13684640231824
1065899,-266.6044233579235,-338.08799752463983,244.23167374342523
1065900,-266.2305789774855,-337.30600178700433,244.89576155356048
1065901,-266.9335239669097,-337.10021050133207,245.03878705713132
1065902,-266.74482667663347,-336.24383382675614,245.77616646111335
1065903,-266.76126852754476,-336.42839548683287,246.50633145958741
1065904,-266.85476974545145,-336.63036501260723,246.9509491913353
1065905,-266.32067500767135,-337.29254379476055,246.83132337727588
1065906,-266.26016050061355,-337.06952844239055,246.8111485053368
1065907,-266.34991796229417,-336.4457853088253,246.73459767408673
1065908,-265.7463389445612,-335.73716274943183,246.28737040337842
1065909,-265.025201224828,-335.81790836083195,246.6835309605901
1065910,-264.423450649238,-336.2687721234295,245.94950898183393
1065911,-264.8851059435475,-335.7431135859731,245.2965611190304
1065912,-265.3028123867058,-336.6184835044722,246.35213613668955
1065913,-265.74813319529346,-337.04657501755423,247.52771903033178
1065914,-266.3132035871458,-336.5001241854913,248.26762986842132
1065915,-266.16465012648484,-335.96116553572574,249.29766616755677
1065916,-266.7110193319707,-335.7622194452062,249.5529938483257
1065917,-267.2571702847658,-336.18000260748533,248.26499575748247
1065918,-267.49839937298447,-336.2190442705132,247.9832523940619
1065919,-267.196735596085,-335.6312663144815,248.76793850620948
1065920,-266.9151694376518,-336.34805060841353,249.05020533705945
1065921,-266.56120309537,-335.37298573732556,248.17687990424173
1065922,-266.7507253651074,-335.7368613289799,248.2030133367577
1065923,-266.04921775174705,-335.81938898795477,247.81750305622097
1065924,-266.7147404481424,-335.232914269384,247.0836750398728
1065925,-266.35973709887395,-335.72336454118226,246.73046856650603
1065926,-266.4928909779553,-335.63538216471983,247.24888221312324
1065927,-266.0156485087884,-335.8763692649703,247.79297941410059
1065928,-266.50097193633997,-336.5095620934374,247.7330697184147
1065929,-266.1346494376595,-336.33818324105795,247.38551399071005
1065930,-265.561914115517,-336.1718167601768,247.16558689404633
1065931,-265.2825638439632,-336.05246486765867,246.92020959569223
1065932,-265.64388701559,-335.8664490501064,246.90074929951206
1065933,-265.01023610324376,-335.9766413719842,247.31557510411895
1065934,-265.30046562093105,-335.6691777488266,247.1997352269655
1065935,-265.47340256483596,-335.46965426218907,247.26787889429858
1065936,-264.69256929503774,-334.81043636842327,247.73032673625576
1065937,-265.2587566351224,-335.01807258785476,247.78654153694322
1065938,-265.8488574398986,-335.09302101448105,247.81912616693322
1065939,-266.1615847088715,-335.4073422503191,249.61698044368222
1065940,-265.81590720500463,-335.25435002653927,249.78616046443577
1065941,-266.5523353299365,-334.96676312605985,249.91949306440975
1065942,-266.1101453685462,-335.24757464898454,250.1622674750166
1065943,-266.4176451279999,-334.2987222425335,251.05496149293077
1065944,-266.01233655407145,-334.7913182036352,251.1178496896758
1065945,-266.70642375696036,-334.4891640127656,251.84271741933108
1065946,-266.6922246693046,-334.102926237076,251.89333420850704
1065947,-266.6454268243874,-333.385551813763,250.81360016018837
1065948,-265.69436090690306,-334.29923735055746,251.15144672182262
1065949,-265.87902041326083,-334.96086004294307,251.50376704631483
1065950,-266.1659187618506,-334.69308906553846,252.03043886949249
1065951,-266.84822577397875,-334.0667180350872,251.8221104479107
1065952,-266.5771283096948,-334.17783346784927,251.21092901729543
1065953,-266.8664797537472,-333.14838886103985,252.21756423477123
1065954,-266.7966116411789,-332.7408468290699,252.11814623009025
1065955,-267.6845505796208,-332.5527989206223,251.2425755049444
1065956,-268.27550061041995,-332.77107250601136,252.4108609992669
1065957,-269.0403862084373,-332.6343761917473,252.33809785927136
1065958,-268.6933663554914,-333.037093198485,252.816023589875
1065959,-269.93079131291506,-331.78411076600855,253.45312367360913
1065960,-270.0859590097732,-331.858512713334,252.9828981511792
1065961,-270.55283161299235,-331.9751660547601,252.25635677950737
1065962,-270.5736922591706,-332.2877453869782,252.0795944255647
1065963,-271.80567033250634,-332.98395694393537,252.15852711565705
1065964,-271.8933250718289,-332.7719723099066,252.12165969162533
1065965,-272.29518133007895,-332.9479639361624,252.0292813483361
1065966,-271.2773771030939,-333.44880003132045,251.9711974628092
1065967,-271.442730537439,-333.2540933384158,252.12965325521495
1065968,-271.2935410769842,-333.75617144496925,251.5101846147251
1065969,-271.41129764798745,-333.31351176781544,250.39506886911187
1065970,-271.97460499031666,-332.2623566871333,250.34072063532673
1065971,-272.69434454798306,-331.89750561577995,250.44228332362079
1065972,-272.6243129697399,-332.27663956416245,250.28835025594378
1065973,-273.11438967250217,-332.47977766030107,250.16024574091668
1065974,-272.73162753115355,-332.24688961949363,249.06956064340076
1065975,-271.9550602389882,-333.02766561843185,248.3126342572685
1065976,-271.3348966506881,-333.7005014534996,248.4537478177536
1065977,-271.53651092147976,-333.5159996774188,248.05176924615031
1065978,-270.8012932575921,-333.9132396345612,247.1726869042463
1065979,-270.9717673345173,-333.64370004333927,246.50077452906942
1065980,-270.9264233287654,-333.56663533405447,247.4884581636513
1065981,-271.1097264308949,-333.6701854600268,246.6656768735134
1065982,-270.45707896364013,-333.23994642391915,245.93393511089965
1065983,-271.0113536150277,-332.9554001523735,245.72746873951672
1065984,-270.2457917487825,-332.80491895514666,245.51934947387673
1065985,-270.08999258282375,-333.58558065100016,246.47890377334608
1065986,-269.83405493471673,-333.08460258784055,246.17342856153624
1065987,-269.53788083122276,-333.42710470313085,245.83109268766174
1065988,-269.74222378705724,-334.00856794720545,246.24031945931864
1065989,-270.0673096695151,-334.06218527698593,245.95253321533718
1065990,-270.1476450280984,-334.5192901179453,246.29048132579064
1065991,-270.8885490466972,-334.2491895248586,246.09450263272856
1065992,-270.36051306894325,-334.1622774761496,245.7721304371523
1065993,-270.3496714029256,-334.2713698371917,245.15520313213733
1065994,-270.9429768836686,-334.24393380702213,245.04826471320018
1065995,-271.0716336738691,-333.54602925200004,245.5287079693703
1065996,-270.72864778767394,-333.5284899117406,245.54034319104005
1065997,-271.3647963699663,-333.5598351765145,245.93304391221227
1065998,-271.01759356864073,-334.8117859142509,245.37974941048492
1065999,-271.8274601268328,-334.42812098005265,245.49717001049356
