sample,gyro_x,gyro_y,gyro_z
1058500,-271.0434852860301,-263.33098420350285,286.51063037004116
1058501,-271.30198958910364,-262.8003629134886,286.14108599420376
1058502,-271.0778552071345,-262.6176592633738,286.42935729994815
1058503,-270.6939594060041,-263.0527852630457,285.2937017364341
1058504,-270.82134769441336,-262.26954166734185,285.3705454744659
1058505,-270.77225452967303,-262.52340306712404,285.21718742376464
1058506,-270.9324385160356,-262.60939709418784,284.7076273553327
1058507,-271.3865347907932,-263.2939487856036,285.6327617482883
1058508,-272.47154028945346,-263.6152276204429,285.6998374295546
1058509,-273.2003594262605,-263.34088961633717,285.5129523377457
1058510,-272.90895827337624,-263.03380844115514,285.1978670539813
1058511,-272.935349862858,-262.924803174022,285.1888783136568
1058512,-273.84766435361627,-263.5959930742061,285.62210434212176
1058513,-274.3293844061386,-263.0609503520771,284.58558791676967
1058514,-273.4555838002853,-262.51648322263816,284.48566819844547
1058515,-272.89475377243514,-262.69280244746426,284.5354406099678
1058516,-273.528520694085,-262.4064637329024,284.44478388776673
1058517,-273.1719119982249,-262.02894529262045,283.475359897346
1058518,-272.2230416221236,-261.71019842592324,283.50902655590886
1058519,-271.822920130709,-261.4956834587463,284.30877714897946
1058520,-271.4768569894759,-261.4341633736513,284.29925012094765
1058521,-271.18446714875205,-260.6954746386981,283.60324250348657
1058522,-271.2392544999262,-260.24924750744356,282.71675260448666
1058523,-272.06203797734827,-259.2783659728059,282.98953335639317
1058524,-272.08201320090336,-259.43749610373345,282.32395508748584
1058525,-272.50275056167493,-259.72394694786846,281.6104235755576
1058526,-273.2444743189749,-259.7689510283702,280.8507737939702
1058527,-273.4612610978214,-259.83093957911933,281.47238773300916
1058528,-273.96179909513575,-259.84606246636787,281.7688636360701
1058529,-273.362881387997,-259.4421352308377,281.76931122699625
1058530,-273.7951422404495,-259.0817790514774,281.9062353037479
1058531,-273.5539383522848,-259.2164842155889,281.3941284414682
1058532,-273.93726090769064,-259.8739637371075,281.29821926650396
1058533,-274.179678482514,-259.7084802583398,281.1834847292699
1058534,-274.46121380201726,-259.6755130169671,279.83179600350815
1058535,-273.98664256650505,-259.6747287485825,280.17087600016197
1058536,-273.8665053289147,-259.8865194795474,279.5698106650738
1058537,-274.38234202836276,-259.79897815621223,279.41562467636544
1058538,-274.7955626131816,-259.1883965908579,279.79200900678336
1058539,-274.17567513534374,-259.41207593095623,280.02731360773817
1058540,-273.9171631639589,-259.9053136937387,279.9710939364447
1058541,-274.1889906353955,-259.17585667254065,280.0936420562303
1058542,-274.4063144974099,-259.0186466257056,280.6324607426939
1058543,-275.247132086452,-259.4219480495175,280.4664432993585
1058544,-275.6581691872081,-258.6669767517993,280.2191812102701
1058545,-275.9906409029761,-258.6905473649562,280.7431281789894
1058546,-276.3721070449624,-258.375666633007,280.4800131843843
1058547,-276.7750862962984,-257.80016465166693,279.864850251092
1058548,-276.6114003931164,-257.3680622382121,279.7427327731822
1058549,-276.2449155423436,-258.21040555087535,279.8245421242445
1058550,-277.1405948055594,-258.14193291539823,280.2329238957606
1058551,-277.7619380838397,-258.3180791485252,279.98265373359754
1058552,-277.741094812329,-258.5020867757724,279.906335624695
1058553,-278.8166598510622,-259.2357806495135,279.8121799267659
1058554,-278.8759219676406,-259.328485619997,279.083935785507
1058555,-279.2133193674895,-258.86150982959623,278.95222365330574
1058556,-279.12195386061285,-259.6587784968557,278.51312344291927
1058557,-278.5218433759315,-259.8640082379398,278.2959963551865
1058558,-278.28548053591567,-259.40676158315557,277.7319674240607
1058559,-278.10116450291207,-259.78346659528165,278.545026821504
1058560,-278.3490529478065,-259.954845091818,277.77688552738357
1058561,-279.27320212562114,-260.3127567530796,276.882826997209
1058562,-280.3923971152128,-260.4552646865452,276.39919720538154
1058563,-280.4078247095652,-259.44036734849675,276.8262982005788
1058564,-281.42121841933374,-259.8352728704639,276.1439730332323
1058565,-281.06274718265973,-259.52815379203656,275.8279520089803
1058566,-280.85511932032364,-259.36851206512756,276.1806297739955
1058567,-279.99364858642457,-260.01000297902726,276.5808898938509
1058568,-279.9215492302339,-259.65753760943807,276.50640525610055
1058569,-279.7186261472945,-258.9686041409686,276.11592157482374
1058570,-280.2629765156075,-259.08758593751065,276.6584218946713
1058571,-280.6301809454384,-258.4776127991805,277.20470340816235
1058572,-280.7881832332048,-259.8320708332775,276.73954612673793
1058573,-280.901686411567,-259.6768047436016,276.3661876971236
1058574,-280.2436358716777,-259.9468494970686,278.06027276858094
1058575,-280.6268459605295,-259.5667292826211,277.4075766988731
1058576,-279.27967362925074,-259.76595186496473,277.75288757893543
1058577,-279.64582954185727,-259.3772597357722,277.74260116887956
1058578,-279.2696708039969,-258.84720718626113,278.97104625120227
1058579,-279.1272383523743,-258.29943068573317,277.8847907521792
1058580,-278.9283120356033,-257.5106212814664,277.59498159752945
1058581,-278.79028279710406,-258.0123845900263,278.4826277242665
1058582,-278.9194638051051,-257.388652782156,278.4209952020076
1058583,-279.3330863605386,-256.8873893397908,278.573871104625
1058584,-279.8083280147713,-256.79679572974493,277.9776738012679
1058585,-280.03121843142185,-257.7747081851008,276.8377842978001
1058586,-280.1733913329497,-258.1978218178526,276.6008957723005
1058587,-280.2546002905973,-258.24843670947945,276.6402739659621
1058588,-279.6124735671158,-258.18215352871835,277.2369308048713
1058589,-280.1471712034345,-258.3540027761379,277.5663126821564
1058590,-280.7112961091248,-258.5624988506559,276.89764309795993
1058591,-281.11659488661945,-258.43624763883736,277.5021489545859
1058592,-281.7147035937272,-258.09007342816324,277.2387892489999
1058593,-281.225251497902,-258.63459967946216,276.6978913079364
1058594,-280.33814187147254,-259.28731163132915,276.5039537575027
1058595,-280.86074112069,-258.9635564166095,276.5820068064546
1058596,-281.44376646365777,-258.4848844355386,277.22918645943207
1058597,-281.51430609526756,-259.1525190695794,277.13199570004775
1058598,-282.12644693896704,-258.7370130329736,277.2983815990612
1058599,-282.2076930280951,-258.92041874020856,276.3719856579318
1058600,-282.1608074202438,-259.6635256772709,276.2117384787008
1058601,-281.85468115524867,-260.1535068321401,276.001845663327
1058602,-282.1995850706186,-260.0213182074957,274.953986844785
1058603,-281.1805052538273,-259.283908468976,274.99556935581944
1058604,-282.2566968235069,-259.60881143145195,274.9056725610108
1058605,-282.8673995643298,-259.01476639085377,274.85559397262426
1058606,-283.63065158228295,-258.8069682928142,274.7317592805297
1058607,-282.95282810889233,-258.3522600133012,274.5193681785231
1058608,-283.36075230027075,-258.223974068326,274.79101117174827
1058609,-283.4420901850502,-258.0707164063186,274.683786904651
1058610,-284.09213839772747,-257.97361674331637,274.41276895320993
1058611,-284.75620584189795,-258.34126519366015,274.36796930711637
1058612,-285.03492308678733,-257.7822517137806,274.4017147706615
1058613,-284.73278982460755,-257.96793587588286,274.33725249139314
1058614,-285.6237362456505,-257.46157829348004,274.1537150991981
1058615,-285.6781359144968,-258.19760900221576,273.74971076092083
1058616,-285.3440077038843,-258.2675095100223,273.95925998467436
1058617,-284.42545404382264,-257.9610382146381,274.2484058865862
1058618,-284.72958510088773,-257.80962181075313,273.9544028420779
1058619,-284.781563692853,-257.60351843717314,273.5472328571278
1058620,-285.16871461739737,-257.2532537714436,273.41350695863116
1058621,-285.9940753451991,-257.25825606933205,274.0218914331084
1058622,-286.3917861860692,-258.32755066267123,274.5927137381793
1058623,-287.1692092304859,-258.41626784132376,274.409785001736
1058624,-288.1432546290212,-258.9789252379241,274.1567248070875
1058625,-287.51340877138375,-260.2732662736327,274.4622420420894
1058626,-288.189891554051,-260.52797410387933,274.5625562421311
1058627,-288.8239220928078,-260.8832936984356,273.6497440794493
1058628,-287.52665113833984,-261.46317039100745,274.335338336036
1058629,-287.37580650451656,-260.76061871041566,275.52956664074327
1058630,-287.14484698543015,-260.3712491784358,275.42262931553273
1058631,-287.31532007553864,-259.9534411137496,275.7432849186607
1058632,-287.5016343449356,-259.629901504409,276.1857914026884
1058633,-288.1587064758071,-259.9718803140222,276.20195503829103
1058634,-287.81315105126305,-259.20751433610025,276.4335043910532
1058635,-287.4279322610219,-258.8393475169265,276.37724926026806
1058636,-286.07272038221345,-258.4206167660283,275.7809973531432
1058637,-286.14420688440174,-258.37929512676953,276.44332820568246
1058638,-285.7049745976282,-258.1195393777933,276.80086711855716
1058639,-285.1132457125051,-258.57331125367193,276.7930007188188
1058640,-285.6282253884959,-259.56691013930663,277.1450394794054
1058641,-285.45119926438065,-259.04146699212015,277.4315219805661
1058642,-285.32475409303123,-259.01644630511225,277.65298976962043
1058643,-285.23690893717077,-259.4355788069274,277.40749723228265
1058644,-285.9960292389441,-258.50311584255684,277.6260743185209
1058645,-286.2030647401371,-258.233767244059,277.0243767835549
1058646,-285.63045884750653,-258.81394714189025,277.60851640412517
1058647,-286.08148838764885,-259.1697493635659,276.70914012043755
1058648,-286.6031500385987,-259.3996123144913,276.49591626465224
1058649,-285.9982022402627,-258.4734644524773,277.11982412287506
1058650,-286.0571853972736,-258.10488382041046,277.18172322480757
1058651,-286.9547325882084,-258.31534266074743,277.73926231058
1058652,-286.80591632882073,-257.7911769029748,278.3900290438109
1058653,-287.34086720544366,-258.5213308862494,278.0189937211101
1058654,-286.41873701992273,-257.6544534463233,277.748321272017
1058655,-285.82225858996816,-258.39319716104603,277.41184054380614
1058656,-286.07484455212244,-258.14413590034223,277.4243932652778
1058657,-285.4428635944873,-258.3053509419195,276.6070617023833
1058658,-286.1111935178446,-258.1150846514988,277.6790356964148
1058659,-286.3407472205288,-258.05038920374665,277.63809164279456
1058660,-285.99199129836205,-258.8728679151057,278.12624540738364
1058661,-286.3935222675827,-258.76900842697717,277.94804570316643
1058662,-286.8308798131216,-259.11516082780463,277.9735806929214
1058663,-287.03971666646333,-258.9460709546334,277.99797446441875
1058664,-286.9737066825979,-258.6037587628859,278.7559801128307
1058665,-286.7822753975495,-258.35964137214347,278.7004553047684
1058666,-286.1612385079271,-258.972378327888,278.919945229057
1058667,-286.46220328501244,-259.89870529399076,278.75950543629375
1058668,-286.3588279390723,-260.0272164106677,279.04976491037036
1058669,-286.4309413855623,-260.35126806552717,278.917533428185
1058670,-286.4996499017904,-260.41185062108593,279.9261992307167
1058671,-287.2137390794361,-260.58310110371286,279.5614586130468
1058672,-287.897970652765,-261.3237601718689,279.38712335288426
1058673,-287.5684644107168,-261.72322850289316,279.8081396391028
1058674,-287.71634252119594,-262.38866631328347,279.4284950704215
1058675,-287.5798215698488,-262.86214349729585,279.2835394485055
1058676,-288.26424087613225,-262.7751140787416,279.09478436992475
1058677,-288.6442131990753,-261.8581618863822,279.5385582504022
1058678,-288.89647429771924,-262.0182190164605,280.0195268220629
1058679,-288.46204613512134,-261.34855530323404,280.6016404773817
1058680,-288.81697104840487,-261.709964743606,280.2830705461819
1058681,-288.2886862082749,-261.76884835433515,280.26651072679414
1058682,-288.4061012273383,-261.17302924182144,280.15444632980194
1058683,-287.89645241466656,-260.3887564173799,280.28284335616064
1058684,-287.85278546516685,-259.4038279629165,280.04585450967056
1058685,-288.47124833771204,-260.31007721046535,280.1190874381376
1058686,-288.0701517729167,-260.8168467584885,279.6810925662702
1058687,-288.43935436364154,-261.0262954279106,279.0562410213061
1058688,-289.30497630838613,-260.9677220692858,278.4091418383615
1058689,-289.5093072824765,-261.07778452525093,278.0169031201212
1058690,-290.7448617844351,-261.1415847061037,278.2802536821188
1058691,-290.90201890672904,-260.1666828662838,278.06739490350805
1058692,-290.40822075822337,-260.77382286474483,277.72369745936317
1058693,-290.0454357799851,-260.4713846994573,278.1885797924476
1058694,-289.5581250915458,-260.7438526097943,277.99409020780905
1058695,-290.45603674120395,-260.91412498281665,278.4106294296786
1058696,-289.6900742917415,-260.87384593675773,278.37236562235506
1058697,-289.2057410216641,-261.1757571959107,277.76245091435885
1058698,-288.75996196654245,-260.3656596155968,277.2330700706509
1058699,-288.5855765143761,-259.76884000486126,277.2215564082806
1058700,-288.4453041886764,-260.06119680739187,276.54117065847106
1058701,-289.16525761390994,-259.88523262492896,275.90724977484956
1058702,-289.69019647330515,-260.05260491800993,275.1833360858816
1058703,-289.3176993385371,-259.4680347918285,274.3776917499483
1058704,-289.1004874703853,-259.1361024160168,274.69885921439743
1058705,-288.6395966049412,-258.65352450881517,274.7926927475245
1058706,-288.2115238695356,-258.65794517231126,275.00035142318404
1058707,-288.05753997016205,-259.2744994241538,274.63780772002605
1058708,-288.08483674418943,-258.2630597582617,274.43309368682395
1058709,-288.23624500781204,-257.3555770516014,273.996460297557
1058710,-288.0784741441574,-257.2858396552956,274.47725718056404
1058711,-286.61228064865077,-256.6820587762522,274.36648770845187
1058712,-287.0525635110578,-257.1234026659102,274.23622492879554
1058713,-286.0921940031167,-257.23886174430305,274.29735398679526
1058714,-285.8963906181572,-257.28717812352767,274.7457343983426
1058715,-286.2736748210216,-257.7144198313741,274.8320634343276
1058716,-286.5071915034577,-257.4802960933245,274.3446353152172
1058717,-286.5814627105661,-257.3828357354887,274.29828329173813
1058718,-286.0988571304521,-257.0375450607229,274.64185105443005
1058719,-286.35254061051614,-257.2844782322711,274.5376647057335
1058720,-286.6367133409205,-257.78638075167146,274.99963801354846
1058721,-286.9601838888551,-257.7607668307888,275.3787559048017
1058722,-287.3540727764901,-257.8034219537767,275.1920313058288
1058723,-287.6709711096731,-257.5195956805764,276.35030527358214
1058724,-288.7073097808174,-257.70037555171245,275.9467281038576
1058725,-288.4520119861882,-257.7245502788656,275.6487572313578
1058726,-288.9499336854604,-256.9988194640341,275.3050707249112
1058727,-289.08890564593366,-256.6814927110146,276.02837693252127
1058728,-289.50270610499757,-256.17381300678284,275.2960971622927
1058729,-290.1389591371983,-255.29716538310407,275.715461366158
1058730,-290.24203217309315,-255.12416579167865,274.9867544789189
1058731,-290.68446458341555,-254.3230493979837,274.2278375889687
1058732,-290.62609902563395,-254.47910773552343,274.34982665184015
1058733,-290.9340717015202,-254.5573654963367,274.09511892415907
1058734,-290.68222371515964,-255.7985202879077,273.1175422149887
1058735,-290.9650871942118,-255.89382968199763,273.2043844395661
1058736,-290.7405168835314,-255.50604524678565,273.7085899799287
1058737,-290.6036718372497,-254.73275402270912,273.56093229641414
1058738,-290.4919518685844,-254.7881930884675,273.22855955309404
1058739,-289.6551085165527,-254.77626046577612,273.20100807609765
1058740,-289.67892291777594,-255.25977441026907,273.05421646884747
1058741,-289.83322278657545,-255.07800785644906,272.1309505342602
1058742,-290.4612817699737,-255.01202743441738,271.92989825750305
1058743,-290.101412351913,-254.2074139179582,271.9672519395413
1058744,-290.6100971829591,-254.49521097609633,272.20336826767584
1058745,-291.0861669724753,-255.11725028180533,272.23017594559644
1058746,-290.9461249313003,-255.1959979395693,272.90171446574175
1058747,-290.0983134467268,-255.51748101159495,273.42546645026755
1058748,-289.91695786699313,-255.57557357026465,273.7087760693403
1058749,-290.4373995010469,-257.0228492598458,274.0383120320055
1058750,-290.89117215384476,-256.9219984828905,274.59801082360525
1058751,-289.8204149198692,-257.18116910379416,274.8444840940578
1058752,-289.66591616617313,-256.53135305863975,275.48864175095827
1058753,-289.9936747785868,-256.68196327570024,275.84814683348384
1058754,-289.7494492682296,-256.80454444324056,275.9010825064212
1058755,-290.40036140446534,-256.13733803314136,275.2445574241232
1058756,-290.3267276365877,-256.5368552073768,274.2302135631094
1058757,-290.18132424269123,-256.97050598816173,274.1237231553009
1058758,-289.8963175390733,-257.01259587276587,274.93465198399093
1058759,-290.2413210209984,-257.0441696643662,275.2748240691188
1058760,-290.46944661798943,-257.578422036321,275.54136085993935
1058761,-290.77152578902053,-257.37805208000054,275.45554103558896
1058762,-291.2135957982562,-258.0275369564656,275.62767668267446
1058763,-291.9204746873887,-257.9410033005382,275.44511841466954
1058764,-292.329725480931,-258.16670909492586,275.3062033384318
1058765,-292.27972116196736,-257.86347790240336,275.1504995023093
1058766,-292.5452741674566,-258.03472707219277,274.85397982370523
1058767,-292.0364178361448,-258.93119314957084,274.52745180936137
1058768,-292.7041041126391,-259.31234560829677,274.721019622113
1058769,-292.6960218688015,-259.91054637769207,274.7033471380948
1058770,-291.8343721741215,-259.59405441161266,274.5443271691268
1058771,-293.1001338860199,-259.56207309700244,274.726777779902
1058772,-293.21271988533897,-259.4803675872916,274.4809885804615
1058773,-293.1927205848029,-258.9535290438499,274.5724931690618
1058774,-292.3189844748335,-258.6128050683123,274.05302419839694
1058775,-292.62922496758597,-259.1684174843364,274.62612656880884
1058776,-291.63109980039957,-259.70190310093665,274.48647274839743
1058777,-292.179250905973,-259.36971343945964,274.67268699145103
1058778,-291.916114137449,-259.9830784409669,274.4800264637107
1058779,-291.54329543107957,-260.0452127838671,273.8806481276657
1058780,-291.1923846654858,-260.32170416153815,274.4341959537487
1058781,-291.0840946712815,-260.53035539736646,275.03677660276827
1058782,-291.7895651224269,-260.18059286644706,274.6428725885287
1058783,-292.5573178828142,-260.2796660454239,273.9482546022034
1058784,-293.0093297493668,-260.391621149569,273.5004618391952
1058785,-293.0361423766761,-260.88390971032857,273.88573705606507
1058786,-292.335625523857,-261.2165306872916,273.0714192342348
1058787,-292.3971161306512,-261.16897630376684,273.1897540338141
1058788,-292.84138411270874,-261.2097665301897,273.1404470453455
1058789,-293.49623049392557,-261.7452330916797,273.6412248888543
1058790,-292.91222455137574,-261.6393655479742,274.3583264358911
1058791,-292.80667590595294,-261.2957201940814,275.1384657359111
1058792,-293.0537399265557,-261.36458831506457,275.28985597451685
1058793,-293.31027594432896,-260.89002296064564,275.34412771166734
1058794,-293.2695301107414,-261.6017764524714,275.144133312118
1058795,-292.5164211857821,-261.4444487262649,274.6950812665662
1058796,-293.3747024341669,-261.1578962821055,274.82063674932067
1058797,-292.8714315770414,-261.76484973296874,275.6716509159147
1058798,-292.85591816085605,-261.38789316670295,275.355333441925
1058799,-292.81546079672853,-261.7824874410313,274.8867861069978
1058800,-292.8285220407281,-262.2615737448936,274.89651682409004
1058801,-293.29959474079175,-262.1456421138656,273.20087955064946
1058802,-292.85703633614236,-262.52903280788735,273.65992968651875
1058803,-292.8349787956636,-262.7093207114764,273.648713109219
1058804,-292.3101980202026,-262.3857308759084,274.4961640947312
1058805,-292.54208817688874,-262.26307469497914,274.5094162260175
1058806,-291.6938829294757,-262.62030639603057,274.4083130940545
1058807,-291.73876642849604,-262.61192538296086,274.1663816777466
1058808,-290.9208229981905,-262.02582515229807,274.3297045481588
1058809,-291.01576742429967,-261.0434024412899,273.77037588785396
1058810,-290.4912664432901,-261.6126175975512,273.61243963087395
1058811,-289.9184321907763,-261.30977944635254,273.7743958199676
1058812,-289.33193284138997,-261.3236943122318,273.6575920371089
1058813,-288.8972183935544,-261.5903666864896,273.27009718206784
1058814,-288.735237176308,-261.466444903852,273.273336288541
1058815,-289.18204319824054,-261.1329169653789,273.6346360767434
1058816,-289.4869353330611,-260.8198671480857,273.7676363314519
1058817,-290.0221037695421,-260.6708459771473,273.34116270966524
1058818,-288.9218853642546,-261.18707457936995,273.68357571244763
1058819,-288.5578657307475,-261.55161381689004,273.8513161405206
1058820,-288.01493426943443,-260.85871889212063,274.23557276847873
1058821,-287.8542990712889,-261.3376514733235,274.10629655761153
1058822,-288.36509398786626,-261.2460268060141,274.6347604813862
1058823,-288.71369632469975,-261.6885627413418,274.3997031691138
1058824,-288.38567791290114,-260.83798249433164,274.07827818914785
1058825,-289.4125567644083,-260.8264824611243,275.3692582604621
1058826,-289.8799391679732,-261.12087654952745,275.7838496945124
1058827,-289.42592316547655,-259.4319988802504,276.2234309068131
1058828,-289.92483316893936,-259.18632545718003,276.0060712290763
1058829,-290.5359639624877,-258.247208651999,277.21880500553937
1058830,-290.104576938319,-257.4186354710561,276.4167239801275
1058831,-289.95594103436395,-256.73225020727847,275.97075815762463
1058832,-290.27316227892356,-256.7427866983056,276.24893228904745
1058833,-290.08758935268236,-256.90024048141214,276.67688790528973
1058834,-289.8301636948404,-257.15706206470685,277.3463903140253
1058835,-290.5016047675789,-257.87375778063915,277.8361708179721
1058836,-290.9439017488083,-257.9206709449121,276.9825282720453
1058837,-290.8277300976546,-257.8648607099888,276.89635195710497
1058838,-291.0198811892616,-258.0853400150537,276.9958533753656
1058839,-291.3786772267066,-257.93301437996604,276.5221941210648
1058840,-291.6921019900844,-257.7257631183511,276.72048383600406
1058841,-291.0582450523542,-258.0382608852179,277.2507154445049
1058842,-290.51487550071687,-257.8777450484499,277.6272407515797
1058843,-291.1255270190825,-257.69560037414146,278.1952164705346
1058844,-291.83099144874535,-256.76976524850943,278.3636326908395
1058845,-291.5643228303342,-257.00827931612577,278.9696309314411
1058846,-291.8986826033738,-256.61208918305596,279.13642893751944
1058847,-291.9849287133375,-256.2678201647871,279.0950464526318
1058848,-291.1777499593877,-255.69295142803603,278.15818413533344
1058849,-290.4800325695859,-256.1086468845352,278.0719706071526
1058850,-290.7252152209006,-255.96099342044946,278.2327417776182
1058851,-291.3762975766588,-256.19854639694256,278.2659001599903
1058852,-290.82811276599983,-256.56080798062726,278.20271938268576
1058853,-291.48985032904136,-256.8780072787618,278.51990014442487
1058854,-291.79777895585545,-256.4501437825873,278.8205092517861
1058855,-291.41378302191083,-256.0135054360322,279.1835135464402
1058856,-290.75568290388514,-257.1811399158349,279.69935501879604
1058857,-291.06557007725195,-256.7027356356162,279.3740246584793
1058858,-291.16716785303885,-257.31549732610637,278.85109611319393
1058859,-291.6694553462035,-257.76594942867604,279.3710986727529
1058860,-291.4208606726025,-257.7319225737058,278.83143924156644
1058861,-292.2190105542107,-256.7947235755639,278.9561109323439
1058862,-292.69105100447035,-256.5021506130691,279.519536869883
1058863,-293.1147611428091,-256.45673515887114,279.29268736372205
1058864,-293.012155241582,-256.75825050548906,278.0773495775921
1058865,-293.64688116737614,-256.59285272129006,278.00876389682304
1058866,-293.35296533105367,-256.7650079317507,277.94157713788115
1058867,-293.940596188506,-256.8097333366819,278.0717038452733
1058868,-294.17951748802693,-256.12706357401333,278.55869744735014
1058869,-294.28207613652154,-255.80376660027446,278.76391613255726
1058870,-294.3854400087671,-255.6597076589441,278.08438561043215
1058871,-294.0630009947715,-255.8946633644884,277.80377117300327
1058872,-294.34092446994555,-256.3137272338871,277.8700932164067
1058873,-294.0594667549389,-256.365142771246,278.27444868899227
1058874,-294.9457819153257,-256.78011423173473,278.4640030420616
1058875,-294.3852310077532,-256.28992496107634,278.3071429193353
1058876,-294.29155697802446,-255.77046540515676,279.3066492834157
1058877,-294.11442017105514,-256.06539001230357,279.13228644835266
1058878,-294.4795317423867,-256.66223257904545,278.85974055080925
1058879,-294.80836288148237,-256.6855385024525,278.8880984131532
1058880,-294.35595814726514,-256.48038169615756,279.219502247574
1058881,-294.647483646432,-256.5739670382381,280.05551563774526
1058882,-294.85261977084815,-256.89500736678383,279.42810868654215
1058883,-294.91294692708374,-257.47988976118137,279.95130926622346
1058884,-293.8134250582872,-257.0932230795982,279.09667132846835
1058885,-294.64370255185776,-256.7604561872005,279.64358806969614
1058886,-294.8194192545194,-256.64611745129395,280.4346377167694
1058887,-294.87928863961264,-256.1395158298708,280.2695436862097
1058888,-295.26012658344115,-255.69595611754917,280.1676634674796
1058889,-295.70414271320936,-255.04851956141775,280.3038861862909
1058890,-294.75329496282353,-254.77083052157766,279.82406945455386
1058891,-294.3160632347897,-254.38613875866568,280.5561371917587
1058892,-294.9341920739024,-254.27011031100037,281.1203088887023
1058893,-294.7238973509565,-254.74975449752438,280.6053999530343
1058894,-295.904639365713,-255.687103253612,280.6617138986332
1058895,-295.9164025842541,-255.43966466245115,280.6276865885778
1058896,-296.1673971938998,-255.0129747163951,280.44721002356175
1058897,-295.2060582052281,-254.29220669375343,280.4886831479774
1058898,-294.0876455497924,-253.12724580316493,279.4547497899018
1058899,-293.5810686628126,-253.16717477061752,279.2441879835487
1058900,-294.80375940550965,-253.51856972936037,279.24626781966873
1058901,-294.57453579332025,-253.22142813716243,280.0907488776886
1058902,-294.57399862195575,-252.66420573850806,280.06815368674694
1058903,-295.37566997692886,-252.92679703681554,280.3978733015486
1058904,-295.9143103696864,-252.6432712199672,280.21123866459243
1058905,-295.7191798020098,-253.49747894869785,280.5616733670571
1058906,-296.0078083940997,-253.89710596742333,280.1564916857189
1058907,-296.31412726471683,-254.2284420501876,279.7820564317403
1058908,-295.68544834845557,-254.44903198111712,279.5149480757266
1058909,-295.72927665315825,-254.87601957476426,279.47553128214264
1058910,-296.31196154659466,-254.06469819335666,280.03178452262705
1058911,-296.16632925838377,-253.73231325322112,280.13811592026684
1058912,-295.23643878895336,-254.71530739767772,280.0550366788277
1058913,-295.3919608780221,-254.56069500195505,281.01114008593925
1058914,-295.1759531757644,-255.19302837488738,281.2993765314234
1058915,-294.68521684458364,-254.80989995064033,281.62258468116113
1058916,-294.86581747676445,-255.16376832401147,281.2059327175606
1058917,-295.1333964396304,-255.93269863620444,280.7040411540756
1058918,-295.6317941619503,-255.67301203371494,281.336380847839
1058919,-294.6960372406886,-255.82392732015967,281.03355018810714
1058920,-294.5636296840223,-255.62702063316493,281.4021439968252
1058921,-295.09790846206215,-254.64444575917614,281.84385771204245
1058922,-295.31214840003247,-255.74399934002687,281.2360157035489
1058923,-295.76600019349286,-256.8808964820329,280.92815866407614
1058924,-296.2840726026397,-256.985088428803,281.00101432224665
1058925,-296.74064434207963,-256.8252931996892,281.32238840353386
1058926,-296.56118754380316,-256.5003639664805,281.35425054559767
1058927,-296.90558041202115,-257.3865540846234,281.5683404824093
1058928,-295.364874665673,-257.0480394148804,282.3153949087688
1058929,-295.31625831344377,-257.7334514414182,281.42694705965823
1058930,-294.3942149143689,-257.9273056550446,281.6392655565749
1058931,-294.8197939856858,-258.26011299993564,282.12169826061023
1058932,-294.92075056718573,-258.26444392781616,281.18983785924854
1058933,-294.26606309549715,-258.71681370031996,281.34665900135604
1058934,-294.06970216145515,-258.1791826683293,281.484244227962
1058935,-295.06509432790267,-258.01654203348437,281.44062099905216
1058936,-295.01642782108604,-258.0060460910535,281.0786914817557
1058937,-295.00145671091116,-258.4373643025124,280.85550600470833
1058938,-294.5068581549357,-257.9542848722549,281.2759788325298
1058939,-294.1224502050421,-257.1660199552153,281.00111192700894
1058940,-293.671519453435,-257.4487707009089,280.2339303435607
1058941,-293.5464946586902,-257.4154612614797,280.2428086151809
1058942,-293.31309337789554,-258.09925150965535,280.4868362537364
1058943,-293.15386948526356,-258.9536157542728,280.63969837043965
1058944,-293.31278426258086,-259.0924607410329,281.35335613328357
1058945,-293.29007051371343,-259.36899065998466,281.2593490567722
1058946,-292.49080675291407,-259.2435237513949,281.88945579282193
1058947,-292.24471260751636,-259.1486732300295,281.4197755085711
1058948,-292.3986793805764,-259.4886792321848,282.05888282649283
1058949,-291.08439198627093,-258.8975822285969,281.6568259479529
1058950,-290.76190961148666,-258.67762159949694,282.4011022485643
1058951,-290.3485338923118,-258.61823715219407,281.60980229483636
1058952,-290.28021794058253,-259.3053821900584,281.62708689828395
1058953,-290.1458329275613,-260.0802111846145,281.2181637740997
1058954,-289.4706851943969,-259.91994330890935,281.2824568132301
1058955,-290.05524111564574,-260.25197294957087,280.99044796190566
1058956,-289.90380829525213,-260.03885423431274,281.103759355836
1058957,-290.5433389745612,-259.9093623296923,281.244161911005
1058958,-290.0099493369257,-258.7341601064582,281.47738483121606
1058959,-290.19230563611734,-259.1309239141978,280.92817704270425
1058960,-289.460777096911,-258.6277613334434,280.3070077839499
1058961,-289.14149689355776,-258.2986943121644,281.41157370562564
1058962,-289.0125457890786,-259.408952135858,281.8146892768055
1058963,-289.58878184609415,-259.41545370260366,282.25877912531485
1058964,-288.8301575133009,-260.15664788858084,281.6961578581659
1058965,-289.27496596849335,-259.1142181200447,281.2349642836304
1058966,-289.57489013696016,-259.13730912473244,281.33160545481667
1058967,-289.51221412819547,-259.4876496385206,280.920731616284
1058968,-289.4114005187733,-259.9123151151047,280.4965288924022
1058969,-288.9483334838339,-259.3191955157738,281.1345968937221
1058970,-288.54403309090355,-259.2123759091013,281.4803852339976
1058971,-289.0274514754411,-258.6595822335874,281.2981017056042
1058972,-288.765701540416,-258.27409346669333,281.57004423918255
1058973,-288.89734781013226,-258.6779438119256,282.2048070782404
1058974,-289.1636482263538,-258.35193215826996,281.78954716474425
1058975,-290.16977844487405,-258.75853520692027,282.30908265240004
1058976,-289.79820276687866,-258.6257807302685,282.526367068343
1058977,-290.02878505180536,-259.30078195666124,283.1199181503857
1058978,-290.43659591852173,-258.8421277102414,283.21591361506427
1058979,-289.6488666445472,-258.1624532955456,283.3268679784525
1058980,-289.8524514778235,-258.3707769476922,284.1107807599008
1058981,-289.9227114633127,-258.13321460608057,284.2341911202523
1058982,-289.81900975913163,-257.86898462644143,284.62509574598835
1058983,-289.95387784319246,-257.72754143089315,284.69842467551126
1058984,-290.49411740789515,-257.7294851136755,284.75548852535184
1058985,-290.87709833400714,-257.8436084215919,285.4493305406964
1058986,-290.96483527687195,-257.82542659165864,284.8690287905025
1058987,-290.9154654702361,-257.19302498511854,284.37807536063787
1058988,-290.7858704342588,-257.7481444599399,283.69512405020805
1058989,-290.53768030569603,-257.60648774583734,283.9070548493405
1058990,-290.6913575554313,-257.3213940816259,284.5367229528689
1058991,-291.14889918611084,-257.6910920143787,285.33219354330805
1058992,-290.3487498486583,-257.82273748446244,284.4846643669946
1058993,-290.5899016951343,-258.50659823665245,284.4351890303601
1058994,-290.60877867901934,-257.49251249422133,284.2857330091493
1058995,-290.2507150160053,-257.9529859311625,284.1209930812281
1058996,-290.49788884093357,-257.9060845159301,282.96503686049067
1058997,-290.86637220533873,-257.23760239415384,283.0101060785432
1058998,-290.7643906669924,-258.1050280671047,283.4229646137095
1058999,-291.9502946473632,-257.45674908638,282.9916452255273
