sample,gyro_x,gyro_y,gyro_z
1025000,-267.4666340089867,-180.23716315800422,258.0743413762427
1025001,-267.6059392905693,-179.34835617641872,258.84635331402944
1025002,-267.20075321750045,-178.89098553981884,258.8547802930501
1025003,-267.01949802497245,-179.30042987172465,259.0634957372285
1025004,-267.83780688925833,-179.54399278465345,258.9094469277134
1025005,-267.28035230848536,-179.32016420223405,259.30095084489847
1025006,-267.630019474514,-178.52430775552864,259.23679382933483
1025007,-267.75122025519914,-178.04262219524372,259.86086444800185
1025008,-267.926438306591,-178.20264329690283,259.56009567093633
1025009,-268.10778350913404,-177.7715391783591,260.0909901638572
1025010,-267.64596325810714,-177.7368545928886,261.06336750122955
1025011,-267.1000549716853,-177.24186018785065,261.1294122488449
1025012,-267.59365127616593,-177.4666010601925,260.46717013635754
1025013,-268.2227016233886,-178.4284044239103,261.44703657987736
1025014,-268.02275366712485,-178.6192628653928,261.2475789424476
1025015,-268.1891405602422,-178.79730659938463,261.01105331859276
1025016,-268.81886774276614,-179.04387521101572,260.6065719322686
1025017,-268.9435918884916,-178.22905541257853,259.6926924339635
1025018,-268.4394944596465,-177.91934263829356,260.27368980044315
1025019,-268.1247948543285,-177.75948089625643,260.19029971988243
1025020,-267.98568773969527,-178.00134270894299,259.65708096236966
1025021,-268.56033406945375,-177.93723179676542,260.4800786480814
1025022,-269.34254377315443,-178.65818217568142,260.1660772148941
1025023,-269.14838762121,-179.23220383934841,260.84943776536437
1025024,-269.0630094255267,-179.274428280536,261.4259118004613
1025025,-269.0088435375384,-178.55078524591437,261.8602654012999
1025026,-269.1633312094442,-178.7077636160465,261.95808330685173
1025027,-269.4425636845794,-178.55235944005886,261.5903039104909
1025028,-268.9517602620994,-178.68000791128148,261.7660510759351
1025029,-268.356105073267,-178.54870019519544,262.1682772697172
1025030,-268.33348315456345,-179.57862048906298,261.84389374618615
1025031,-268.79969002278136,-179.413915471153,262.000706607474
1025032,-268.21687772224374,-179.91309468527075,262.39252707611
1025033,-267.93972747000964,-179.91084781206382,261.4830255176727
1025034,-268.07873922758375,-179.74446849652247,261.74949752698564
1025035,-268.1000939078236,-179.74708952519998,261.31011850819397
1025036,-268.8269044466267,-179.82001439875984,261.1970186263968
1025037,-269.54037343455343,-179.78096348515982,261.2863304090429
1025038,-268.6529658396959,-180.21899365879221,261.77975377974263
1025039,-268.48227696573167,-180.47648224731861,262.14793698850843
1025040,-268.3300660356424,-180.510871963497,261.99606197009416
1025041,-268.79322477793215,-180.2433741028116,261.87310769021695
1025042,-268.998958912312,-179.13322344804158,262.6093605348351
1025043,-269.5600257884374,-178.15334633301953,261.85353955768426
1025044,-269.9661069073035,-177.35378249806848,262.0219133472256
1025045,-269.40828498756986,-176.90276384267315,262.18595277553646
1025046,-269.0615539528978,-176.16262161214854,262.3179415539135
1025047,-268.7315545009943,-175.90382996922955,262.03290015083707
1025048,-269.2061849668517,-176.28675779776015,262.3828584939113
1025049,-269.28381955237916,-176.47128021772562,262.4716834318297
1025050,-268.90536505525034,-176.41555596129132,262.13311452772956
1025051,-270.40396878463247,-176.5769985926009,262.8941479877519
1025052,-270.76313310525876,-177.11185095369925,263.118049146084
1025053,-270.9725825398991,-177.27022695828714,263.4986082074654
1025054,-271.6115380848195,-176.87481615233722,263.7458438604185
1025055,-272.03780074765905,-177.1601915708399,263.8040867541495
1025056,-271.21866440039554,-177.21392520272576,263.93219732746167
1025057,-271.9512498480231,-177.1290238083756,263.61514762067213
1025058,-271.7660018581611,-177.0584196077324,263.4789755449378
1025059,-272.65077191113045,-176.93610742151648,263.6863970373241
1025060,-272.4978759196537,-177.32206989025696,263.1531144283926
1025061,-272.7824351177247,-177.25891977865098,263.56586173467025
1025062,-272.7198071649267,-177.38352890725182,263.1382281990461
1025063,-272.7300207534916,-178.0793309777718,263.21726839773896
1025064,-272.1381797409749,-177.99150975368914,263.45669007230725
1025065,-272.187655832564,-177.945963093888,261.8547530416072
1025066,-272.56876843984674,-178.7815976389986,261.4342601182191
1025067,-273.2384962162698,-177.79961387034254,261.6093655814783
1025068,-273.3850049738591,-177.11762907592754,262.0757382588314
1025069,-273.4535008743569,-176.86995625612948,262.44720300942294
1025070,-273.20449517030687,-177.28032374637704,262.3796780379866
1025071,-274.1750863779599,-178.16827681164725,261.7380395397506
1025072,-274.3404342501482,-177.97162677910558,260.7205140365158
1025073,-274.5768349049052,-177.9162053224553,260.86926639462456
1025074,-274.42248859891544,-176.96427866620314,261.88424925481814
1025075,-274.201018881035,-176.77754316790873,262.16425381905964
1025076,-274.3245672713815,-176.58746989843223,261.71678784356016
1025077,-274.0512856777826,-175.94204727883456,261.2191713480613
1025078,-274.6618327229488,-175.31536392937204,261.5026218442605
1025079,-275.1259953730616,-175.25018080718465,261.41667501889714
1025080,-275.5217404261089,-175.48608993162134,261.7122799275569
1025081,-276.3745925654873,-175.545406244031,261.18869409067565
1025082,-276.5941805431519,-174.83388297026687,261.9193594097292
1025083,-277.1493337542552,-175.57060658155277,262.01777995760557
1025084,-276.544999246632,-175.63311381131393,262.3857794146292
1025085,-275.64835590319535,-176.09984048842762,262.62995263536527
1025086,-275.10655016324904,-176.43563267335566,262.4174908073047
1025087,-274.6395349567498,-176.13441117846983,262.5300248077964
1025088,-274.3875437296455,-176.31637850303926,262.36168177566276
1025089,-274.19308962571637,-175.9406571205956,262.6921662059262
1025090,-274.6827116241636,-176.92614829097363,262.18946356462186
1025091,-275.25764762125834,-176.9081349304775,262.2700842580437
1025092,-275.0033360516616,-176.4491026242677,261.6510988305986
1025093,-274.88327744167003,-175.58233061259764,261.7539905793305
1025094,-275.27831410990484,-175.87250643818257,262.01483185561915
1025095,-275.27849842919784,-176.63827968062844,262.2418531438281
1025096,-275.37681877536744,-177.04818189667506,262.10688341866717
1025097,-275.7357885718525,-177.59964052338677,261.14716759137127
1025098,-275.96784174254464,-178.1068988201971,260.75084284920433
1025099,-275.8471272747324,-178.02798119057098,260.79802010063855
1025100,-275.0193109501096,-177.28951570817247,261.7085807494342
1025101,-274.6619862469579,-177.42465457506,262.2923934511183
1025102,-274.5487265092876,-176.70891603804412,262.56935182131576
1025103,-275.0503789355619,-176.36413173825542,261.7560758648678
1025104,-274.5088299649698,-175.94233083157278,261.38209916163504
1025105,-274.8944744651273,-175.658320591266,262.27166833163494
1025106,-274.6158677048574,-175.57295638711872,262.06774672526177
1025107,-274.4188810807361,-175.58734403711566,261.9521557762056
1025108,-273.6403854102605,-176.07044566692147,262.9740124821285
1025109,-272.9717648292501,-175.80813365147654,263.5985786236972
1025110,-272.4778902641715,-175.4899019138297,262.3374694865724
1025111,-272.50131096272503,-176.31851106510882,262.4545973816259
1025112,-272.9785827266483,-175.7121996802425,261.67910952141284
1025113,-273.3712565051319,-174.97737311678088,262.05151915867594
1025114,-273.14316786812367,-174.22116871364156,262.11633795203494
1025115,-273.1430077384503,-174.66004807510924,261.814333428858
1025116,-272.68307729168487,-174.93958931133994,261.5705510689077
1025117,-273.1505515557802,-174.86927231851777,261.0517603805206
1025118,-272.0665598896382,-173.71284039931356,261.5354471149345
1025119,-272.45063519279176,-174.04128271546548,260.93395072518143
1025120,-272.1981405373122,-175.0555256969778,261.12162028490485
1025121,-272.5810213276379,-174.3869453133556,260.6071151753053
1025122,-272.41940429597616,-173.87437499457639,260.3008524366255
1025123,-271.97032414467816,-172.98183047475985,260.34480517943933
1025124,-271.69930222563335,-173.51683771199504,259.89504411642645
1025125,-272.2720386520257,-174.3691741766874,258.6409072159457
1025126,-271.89287077168007,-173.8166994380281,259.1344995253581
1025127,-271.89493223335495,-173.33330132464727,258.8770205625081
1025128,-272.26320528519807,-172.89992746960758,259.2601337245362
1025129,-272.85563936300747,-172.79709009168877,258.85963748772366
1025130,-272.9227351338611,-172.45415511588408,259.00588425010085
1025131,-273.57912504405556,-171.91983296450763,259.4657479053682
1025132,-273.96841303233657,-171.83249871766574,259.8706891612067
1025133,-274.5814936795994,-172.04837669327327,259.54368925300616
1025134,-274.43089578715836,-172.3613217350524,259.191567817182
1025135,-274.3800792595986,-171.87269957742714,259.17457729697827
1025136,-274.17128598801935,-172.14109417113056,259.3870321167368
1025137,-273.95722740270867,-172.44977066450272,259.551414273408
1025138,-273.7572997416532,-172.73658436222027,259.1385399250128
1025139,-274.47289009024973,-172.9493555061184,258.98103286134375
1025140,-275.63131641755086,-172.4477108776126,259.37998557624576
1025141,-275.4635437643384,-171.9893396331501,258.8745472015576
1025142,-276.49723238845206,-173.5108745696415,259.00936385392015
1025143,-275.58393028334194,-172.82250932761423,259.2128581800252
1025144,-275.2811278932388,-172.16945278722227,259.0056996912881
1025145,-275.69408667929736,-171.52678516590572,258.5981046281838
1025146,-276.0374769998935,-172.7159032843393,258.2198310505538
1025147,-275.7417664902468,-173.03588423387586,258.0072215437744
1025148,-275.71396320078776,-172.65412881407494,257.4743258410753
1025149,-276.3045468453269,-173.21153851166082,257.98696888712504
1025150,-275.76767479180967,-172.916557636958,258.0879031413587
1025151,-275.6763832495802,-174.10535309101036,257.74065272297906
1025152,-275.71853894614776,-174.06094664975083,257.6491330755771
1025153,-275.3102166644693,-174.2482976286517,257.06707934442215
1025154,-274.88029233784465,-174.2576465529866,257.8371092627572
1025155,-274.6477569700525,-174.53275119380328,258.0888145465078
1025156,-274.8644078269336,-174.09252173357982,258.5618541069638
1025157,-274.0326435251994,-175.23389827354725,258.26430564663167
1025158,-273.7695961213985,-174.49867001317318,259.4438437440232
1025159,-273.61974806554656,-175.02544423316388,258.89270932257784
1025160,-272.97840956719125,-175.20363046304203,257.94761971183846
1025161,-273.010643230018,-175.0053160712422,257.8864360083673
1025162,-273.47806656605013,-175.00394112155095,257.6732261286972
1025163,-274.0216052109239,-174.04441794461374,257.096961765801
1025164,-273.19296457365544,-173.6156335396281,257.44533273995256
1025165,-272.64702277821965,-174.05621382038836,256.5786212571724
1025166,-273.3433442277881,-173.16748561387286,256.2007632485445
1025167,-272.75683191452015,-173.1503286899862,255.4985054589527
1025168,-272.57734921301636,-172.6316483700824,256.1708334104391
1025169,-273.34655447315134,-172.70045212878995,255.90321892537915
1025170,-273.0141301174225,-172.81465819861037,255.5402579534299
1025171,-273.2920677336658,-172.82952516002138,256.0148752187916
1025172,-273.17002937508676,-171.70542050764016,256.40953103609
1025173,-273.7766841473238,-170.97908939198678,256.63767776995763
1025174,-272.99229192767496,-171.0923120922822,256.69949281793527
1025175,-272.51586217164197,-171.40787659596725,256.92110615353323
1025176,-272.92381159720554,-171.44373178205635,257.36178401897604
1025177,-273.2555319479478,-170.71440450332187,257.841244797725
1025178,-273.43070438177244,-170.76742034596188,257.819390937223
1025179,-272.98420301611134,-170.36763290646832,258.02380950421093
1025180,-273.60160228654706,-170.3444590589256,257.86453869239045
1025181,-273.16390574681026,-169.45350888826525,258.0830828220044
1025182,-273.2392672653059,-168.69491226818923,258.4537766792182
1025183,-273.071103112738,-169.34745993279037,258.0211715080074
1025184,-273.64966853009827,-168.7369866000572,258.46705841824166
1025185,-273.18406189512206,-168.57135366555946,258.3062359986658
1025186,-273.0938707628029,-169.876660486891,257.74445379501645
1025187,-272.5905820546029,-169.97905383862278,257.4571524515627
1025188,-271.7943108398363,-169.289020138244,257.910130559488
1025189,-271.81394440681487,-169.62307167230787,258.38792524152643
1025190,-272.13762344763364,-169.9534684381436,259.210616460418
1025191,-272.8181681256887,-169.8202055016915,259.46217787056514
1025192,-273.5034551694079,-169.65754453000508,260.2714079077674
1025193,-273.29191438436186,-169.73968359738598,259.92879825487984
1025194,-273.52213159668906,-169.28260471505257,259.74682005220814
1025195,-273.76627640557297,-170.06061957205807,259.7539297787887
1025196,-274.2136753550651,-169.82300833199517,260.0255278453666
1025197,-274.4304709284377,-170.1372748618518,260.04686967778025
1025198,-274.52109693257074,-168.96013494222962,260.27382110394893
1025199,-274.1923380550081,-168.58603615244567,259.6405311604816
1025200,-274.5458153741972,-169.08698078982488,259.76983087099404
1025201,-275.4008291458712,-168.63250535905055,260.4157401766627
1025202,-275.9754317471409,-168.62682159385184,260.23657389500886
1025203,-276.9665428932044,-168.4249307477543,259.92305273779994
1025204,-277.76687916143123,-168.5978642298772,259.417250531521
1025205,-277.96517030636875,-167.885577902179,259.40632341582057
1025206,-277.9401913288051,-168.7808135584102,259.5616264189306
1025207,-277.7639358270935,-169.09991716795975,259.4880523395106
1025208,-277.82714560314486,-168.78045736550976,259.76726532505967
1025209,-278.0177047264964,-168.2343836412555,259.40088749629126
1025210,-277.40948430056716,-168.46265218675413,258.86988123301376
1025211,-277.0890023423295,-167.89693526987364,259.048799169717
1025212,-276.88890989426625,-167.8511595888055,258.9205382191447
1025213,-276.9959651495741,-168.27599890450745,258.71329389106336
1025214,-277.04322446387584,-168.22994648803365,259.19472854873396
1025215,-276.62328331532507,-168.75499143879662,259.7609428374761
1025216,-277.19887139064946,-169.14988284483584,260.0242905119701
1025217,-277.0825144768268,-169.82367597385738,258.9195056976775
1025218,-276.29417082570484,-170.21587784070857,258.73334455828257
1025219,-276.1330123125194,-171.09539878082393,258.5773088016821
1025220,-275.0802332741647,-170.804213237405,258.2398146023263
1025221,-276.20182989060595,-171.55817238674265,258.44629321615855
1025222,-275.52469921431174,-171.35841863998914,257.97402310853107
1025223,-275.6478892783355,-170.66515303561457,257.51501610890705
1025224,-276.23984919029954,-171.24658316080993,257.57899907754773
1025225,-275.6832148786028,-171.19861774742245,257.0548438595457
1025226,-274.6564153471165,-170.86266897487928,256.97055000425996
1025227,-274.4761602561133,-171.30318748378306,257.6133032352118
1025228,-275.1864558355842,-171.79610919587802,257.8151435848608
1025229,-276.31040387727586,-171.1454055076444,258.4817117832029
1025230,-276.3234256393643,-170.46197113863758,259.25938872178375
1025231,-275.79509026821125,-170.56723194274534,258.0355270959272
1025232,-276.6999137610164,-169.71362040668012,258.1820799868129
1025233,-276.2870662764723,-169.07448114612333,258.1963500822482
1025234,-276.7386000101668,-168.8765854365475,258.1616221964577
1025235,-276.77945531528235,-168.64281296427782,258.86998566702397
1025236,-276.0077670285185,-168.5274858576585,258.9033091814667
1025237,-275.78714377409034,-169.23832701903248,258.721859534364
1025238,-276.3978801754394,-169.69716359445005,257.8061438071424
1025239,-276.73401388231207,-169.5708325899707,258.37344386943676
1025240,-277.2629655667237,-168.93353824619692,259.7874373747194
1025241,-277.19947449153585,-169.02237531426027,259.3949032462109
1025242,-277.6055326380337,-169.39794694659122,258.98190814050696
1025243,-277.46593516100603,-169.4728584282003,258.07068305444255
1025244,-278.3344791305505,-169.7669705496144,258.7854527628867
1025245,-279.2940660778317,-170.2251377793703,258.9615650237674
1025246,-279.19880160966284,-171.04540349800754,259.9596954189524
1025247,-279.6661146588002,-170.65638063020074,260.94860119015533
1025248,-279.83415866242194,-171.38286964259984,260.8151183018824
1025249,-279.92245620239544,-171.20707417795862,261.20437872194833
1025250,-279.366672000914,-170.7602440391421,261.0270719027559
1025251,-280.1839457563431,-171.03994096579987,261.560628712147
1025252,-280.6149165028973,-170.94716099390288,261.6247328061828
1025253,-280.75953922255366,-170.95849602512598,261.29304604267134
1025254,-281.4230820834265,-171.1138525289941,260.81459963679123
1025255,-280.99343851257726,-170.90472090275716,261.8807668852209
1025256,-280.95569947139194,-171.32926687119627,262.62627430122603
1025257,-281.5101314150944,-171.7866874998815,262.3783179602711
1025258,-282.1319270543871,-172.79442374769144,262.4305484732299
1025259,-282.4197723726179,-172.42256527174638,261.85268209154924
1025260,-282.2017266558928,-172.5567769153527,261.8486904908896
1025261,-281.9552448036199,-172.86191483305788,262.2236082633921
1025262,-282.94782221403744,-172.34122939768372,262.55522237767747
1025263,-284.07303349940236,-172.10679825684846,262.7324620152201
1025264,-284.04318054212047,-172.28145128055965,263.02750603632705
1025265,-284.0624130684972,-172.03111526814868,263.0145124851838
1025266,-284.2880720385287,-172.0222584557284,262.7014059419514
1025267,-284.4418887704051,-172.28473046995933,262.7734071835492
1025268,-284.9505047685184,-171.79998904529705,263.48015631679345
1025269,-285.49039261755087,-172.4945720113675,263.7565239817764
1025270,-284.8813409683219,-171.82662142985814,264.50412255016795
1025271,-284.8404752093786,-170.87116920126672,263.5483164653642
1025272,-285.7036220224075,-171.31685984047144,263.90087078163504
1025273,-285.3279211095871,-171.12357304593124,262.96722534952045
1025274,-285.24294674714906,-171.3658264606804,262.23187913325955
1025275,-284.76075709292263,-171.75491463270706,261.8726035378151
1025276,-285.45523156790733,-172.27641424584897,261.3825964590944
1025277,-285.2566084986228,-173.10534078697393,260.9909050694527
1025278,-285.23025513427575,-172.68310955297898,260.5560070659952
1025279,-285.86528798267256,-172.77662198889357,260.22657537085666
1025280,-285.9611180358304,-173.99764819983218,258.7077356332463
1025281,-284.7221196874126,-174.1832798480002,259.39337928527885
1025282,-284.4950477102775,-174.96471307293407,259.0515109937424
1025283,-284.85427384305353,-175.43765638335367,259.0541214343823
1025284,-284.83234949642525,-175.99332412460572,258.9184851206908
1025285,-284.3511846549118,-175.74708825863556,259.1270150047798
1025286,-284.10500178521767,-175.7556243286695,259.75815004881576
1025287,-283.90658043511337,-176.2301012185626,259.5468168616017
1025288,-283.46310394446573,-176.03535470077844,260.1663953139296
1025289,-284.17930526272306,-176.21300132342947,260.65087038098164
1025290,-283.4202198412864,-175.46586768835343,260.8083244293519
1025291,-283.42505193382254,-174.9761307289201,260.7605058448344
1025292,-284.0465439731089,-174.82804595149366,260.5519435243863
1025293,-283.4651301234962,-173.65664765927085,260.02090256005823
1025294,-282.90594301839553,-174.26497341989972,260.36807280197377
1025295,-282.37287875235774,-174.94482857833376,260.73385481805775
1025296,-282.27153284180986,-174.81925817863,260.9957472613135
1025297,-282.76309761624253,-174.7116935706928,260.9422313879778
1025298,-282.4612366783338,-174.40806034053642,260.5576702982652
1025299,-282.0649493458487,-174.0428148231953,260.48452569688214
1025300,-282.0424536555873,-174.13401424602836,260.03735695989513
1025301,-281.67750067923635,-175.05823501061556,259.4343700680677
1025302,-281.8176064304647,-175.0765023911261,259.108130314057
1025303,-282.02988964618714,-176.4598683893264,259.26904969293344
1025304,-281.87694316573595,-175.4795028834922,259.5803965592757
1025305,-281.86699401905275,-174.69417403022612,259.4701779952985
1025306,-282.70214762877123,-175.10487031454477,259.7589755722763
1025307,-283.3577278365261,-174.59367817674683,259.6208974420775
1025308,-283.30485507660865,-174.14676090114406,259.3919882769839
1025309,-283.9372535961344,-174.0075006960312,259.2756991445661
1025310,-283.8859829477802,-174.7558245840895,259.91211333923644
1025311,-284.6230776608453,-174.55860077891944,260.232579021142
1025312,-284.5639511340468,-174.3301712785074,259.81137368430393
1025313,-285.1029405228501,-174.7049323080594,260.41960892104265
1025314,-285.33812238646806,-174.1799760215688,259.94901368250504
1025315,-284.82619488090967,-174.82326722524124,260.5701988440852
1025316,-284.9169939823072,-174.85754653352632,261.0125354624154
1025317,-285.14254959501574,-175.256352741581,261.61905879885336
1025318,-285.51290662114195,-175.68200159513384,261.7136143220044
1025319,-284.87561455552503,-175.2370594688189,262.1230192695206
1025320,-285.2558615115137,-174.97884238837895,262.393581781787
1025321,-285.29055798720606,-174.07121509177466,262.4832925552672
1025322,-285.5106057704674,-173.73297660191622,262.4299197121475
1025323,-285.8203909512785,-174.51957599308676,262.7817389550436
1025324,-284.5475081816999,-174.6985323193196,262.7754231963373
1025325,-283.964389380491,-175.271689278148,263.40990863359934
1025326,-283.2955497871742,-175.81403752087468,264.2062777920037
1025327,-283.41575116980516,-175.78356936853427,263.93341379753787
1025328,-283.2723224250388,-175.7257802688087,263.85005774031987
1025329,-284.37098128036394,-175.50317625262022,262.82094816051927
1025330,-285.15826558137155,-175.77223975580117,262.90738526661335
1025331,-284.68070238723874,-176.45186231359227,263.4343674248886
1025332,-284.54079349353015,-177.28330974658948,262.9912180115279
1025333,-284.7216889928596,-177.1550153286745,263.3615719388147
1025334,-284.977756613505,-176.45917564102604,263.79879390350027
1025335,-284.4274463077904,-176.97549845131567,264.0656460968563
1025336,-284.1590754294211,-176.76231828301277,263.6706714040955
1025337,-283.36324344522706,-176.04251155347566,264.6038900276102
1025338,-282.8900867683526,-176.3111031762237,264.3509652701951
1025339,-282.7097417800448,-176.26433740231204,264.4580990757088
1025340,-283.50583946932386,-176.35608623020178,265.19457410051064
1025341,-283.95058456565704,-176.01808100375044,264.71212226470607
1025342,-284.1669897238053,-175.99311274838874,265.73213311905107
1025343,-283.97009564643497,-176.06948589052982,265.6569372112373
1025344,-284.12971749164217,-176.07020514344882,265.46857842255
1025345,-283.9632947917772,-175.56188952647622,266.35984317620455
1025346,-283.2284723782722,-175.69256949956707,266.31197571277113
1025347,-283.41160035420563,-174.9353774441702,266.0612919827482
1025348,-283.29834129264816,-175.2234376801687,266.27041367472543
1025349,-283.6967517138118,-175.30694327989195,266.7135403850071
1025350,-283.5031269062584,-175.7948759625181,266.9827230611876
1025351,-284.18333613687076,-175.34180987425296,267.30529585947215
1025352,-284.3404292574213,-175.2719407340262,267.2542214487159
1025353,-284.0870849534467,-174.96890791737363,267.5902011831922
1025354,-284.9330206084006,-174.7563662105987,267.9557472522091
1025355,-283.6740031748346,-174.57137181816142,268.82583133695215
1025356,-283.4838154244104,-175.1553817974059,268.950774355083
1025357,-283.6731675316023,-175.55686086440787,268.9065194716395
1025358,-282.86224860000607,-175.63319808626775,268.7390808762568
1025359,-283.36100535626906,-175.38732364026006,268.4429062039374
1025360,-283.5739772246278,-176.03346957264137,269.27600200878027
1025361,-284.1294764979601,-175.65318571178665,269.56916648403615
1025362,-283.7157796497227,-176.06604077913065,270.19842527845657
1025363,-283.40641516000585,-176.32315407394353,269.75012549352334
1025364,-282.8625092731663,-176.1638299510413,269.978101110285
1025365,-283.0493374731308,-175.59362379143408,270.279442956482
1025366,-282.9209451002561,-175.13757374087382,270.8888068214311
1025367,-283.0901383854007,-174.1007093611443,270.5396158482183
1025368,-283.3672310632847,-174.3113870310247,270.821574894108
1025369,-283.8807969468408,-174.04688065264483,270.4554699040187
1025370,-283.68262889349967,-174.77897903174073,270.9918915860261
1025371,-283.5133450748906,-174.1442254350647,271.2695448057993
1025372,-282.9060781933558,-174.47370399366318,271.0950881422485
1025373,-283.4354963129105,-174.64259221493825,270.7031581385467
1025374,-283.8674831189337,-174.39703984092628,270.90707650659726
1025375,-283.19102702392667,-174.11882760507905,270.7226073938945
1025376,-282.8689654394085,-174.7979098190429,270.2550809783468
1025377,-282.6650981972708,-173.8148737590355,270.38495759137834
1025378,-282.50126504232657,-173.28701921588151,270.8726939701528
1025379,-281.9277842681289,-172.80796089178173,270.9423312324816
1025380,-281.9084975769583,-172.6577844963347,270.9040703046461
1025381,-282.8829770713735,-173.0898401070795,270.6270265377657
1025382,-283.3445084874082,-173.70764911202053,271.1223166877705
1025383,-283.0495719260019,-173.59395893957756,271.4759370517702
1025384,-282.67977551185356,-174.10585490989774,271.15166284181265
1025385,-281.7734352181313,-174.0853553242615,271.1733851589951
1025386,-283.0312643000332,-174.11851129995202,270.04503074120333
1025387,-283.2739181465987,-174.80044960718783,270.1247373035856
1025388,-282.7854696325053,-175.0658240865837,270.21747953934533
1025389,-281.86724185205213,-175.71427171389493,269.78369054521465
1025390,-281.7883237113662,-176.21277488088455,269.20319122695537
1025391,-281.4216102990291,-177.0703904318329,269.02281615979746
1025392,-282.38461361201547,-176.14250140318708,268.79924481599625
1025393,-282.5879229190855,-176.42349610432728,269.6273237837871
1025394,-282.86610240005723,-176.84156857611598,269.82355056526256
1025395,-282.1233718138093,-176.88788167272799,269.2094880720709
1025396,-282.8102242962945,-177.65114281977606,269.5010293087675
1025397,-283.34631337784344,-177.7254215010961,268.7874962578419
1025398,-283.39139863845224,-177.61764210040684,268.99651119428586
1025399,-282.8497685007024,-177.7224584069823,269.16800098312495
1025400,-282.6395588210689,-176.9259942090276,269.12362093099154
1025401,-282.3970698024165,-176.32110741091438,268.56832643724175
1025402,-282.6654411517493,-176.1263241166104,268.0895792130846
1025403,-283.2122843875088,-175.85190239247285,268.02785323993834
1025404,-283.4539708218667,-175.2126747486943,267.2913563637102
1025405,-283.3580285303724,-175.14960369179195,267.8936888277193
1025406,-283.2984367175171,-175.5502882727183,268.0971358240328
1025407,-283.0826174897702,-175.7747036816021,267.41612341255006
1025408,-283.9880446290813,-176.01858592214813,266.66201963321515
1025409,-283.9555306762831,-175.03497326589996,266.6180638298315
1025410,-283.8050449530595,-174.6520501357051,267.4432017452414
1025411,-283.2140962014287,-175.41952894007244,267.27905827140995
1025412,-282.19305177994937,-175.28224514242135,267.5061916889581
1025413,-281.67046162458496,-175.04307779464799,267.67120727284987
1025414,-282.70713084080734,-174.56581573845938,267.821902361293
1025415,-283.13777211896615,-174.16216890708287,267.70468496709634
1025416,-283.06995729339855,-174.8101709382574,267.63522295874907
1025417,-283.034513060992,-174.18496225952873,267.24742601536025
1025418,-282.9639944490358,-174.1536281682577,267.23013911235785
1025419,-283.73479876589255,-174.52171776229392,267.47930381903404
1025420,-283.9506916200326,-173.46327872430402,268.12109604406317
1025421,-283.75122402696644,-173.14298409588574,268.3485671650223
1025422,-284.54646811175746,-173.94598007881814,268.00696263538384
1025423,-284.3550427610163,-173.3102329296581,267.61025591597223
1025424,-284.24622443540466,-173.01577402821889,267.072385910636
1025425,-283.93221094995863,-171.98103231271662,267.33960156801345
1025426,-283.1591070951579,-171.39672810961724,267.8517002124759
1025427,-283.08963369160665,-171.77184109651273,267.42842293988264
1025428,-283.1698631764541,-171.8400348460429,268.47612003914475
1025429,-282.65452739938985,-171.6761412446223,268.29003810349246
1025430,-283.0007513398294,-171.49263030572274,268.1604032757132
1025431,-283.3224384571383,-172.3049020637642,268.0336890205051
1025432,-284.31941813094926,-172.99131352707033,268.56122571814905
1025433,-284.51212193505785,-173.1712200274187,268.9161573143767
1025434,-284.74866001790707,-174.050933663392,269.12153948277114
1025435,-285.94931445036036,-173.7833091176759,269.2493556665617
1025436,-286.0201006986817,-173.86975864686104,269.97499254971285
1025437,-285.922148597124,-174.0195594412604,269.42994037255215
1025438,-286.0968245558674,-173.80632705093805,270.2270751626888
1025439,-285.98891795973196,-173.63076126638146,269.8889275131748
1025440,-286.185139752588,-173.14518081504974,270.5151242669825
1025441,-286.29214962978654,-173.2591412364479,269.9476835220331
1025442,-286.24705991154553,-173.2172917806603,269.9513528228893
1025443,-286.6576417971817,-173.6332522712653,270.35755874939525
1025444,-286.49041444866276,-173.24125046167646,270.9065381462448
1025445,-286.4154003046433,-172.68492058049821,270.62685387796296
1025446,-286.19734980091687,-171.95353156741155,270.8659884528787
1025447,-285.7300537493862,-171.99632453590394,270.3249965762732
1025448,-286.1504070767769,-171.8934378548118,270.34511333741204
1025449,-285.8382315021585,-171.66779852558426,270.05161202031263
1025450,-285.6013095954458,-171.50395892507626,270.4392371328005
1025451,-285.9297943409917,-170.4676215595067,270.4763601645795
1025452,-285.97376831773835,-170.56959889643306,269.9599892366404
1025453,-286.49706922702086,-170.56149264376737,270.63400419970463
1025454,-286.33807229477475,-170.8289541600427,271.01946718615415
1025455,-285.7603101963746,-170.27876451210278,271.0567158428997
1025456,-285.704874182577,-170.14961309837494,270.2411802272189
1025457,-285.5257811822849,-169.40736649496785,270.14805428328435
1025458,-285.74780082224925,-168.99304937153354,270.83893597200415
1025459,-285.595722048421,-168.79532646078275,270.41875487482116
1025460,-284.9367103590116,-169.468560643693,270.57614398717527
1025461,-284.73095299706,-169.6430897019545,271.28530892000674
1025462,-284.7841901027009,-169.68871210094477,271.85405297382147
1025463,-284.8642105901588,-169.55775251219558,271.96222585644705
1025464,-285.55891927399216,-169.685922438326,271.85116860045923
1025465,-285.91245463804023,-169.73189565819462,272.43455430834973
1025466,-286.0891423979475,-170.2413554241383,272.65379970495803
1025467,-286.22615964625845,-169.71305040287248,272.614904650661
1025468,-285.82987927021895,-169.88543006419974,271.94123429790375
1025469,-285.5479028005275,-170.04166540936916,272.0636605221901
1025470,-285.16993413086624,-169.94427551803886,272.51046585754153
1025471,-285.230839025881,-169.84165060281308,273.9645479604592
1025472,-285.5443214829326,-170.4040456866192,273.418036278417
1025473,-285.3068684634197,-170.55128662033124,273.7988814792803
1025474,-285.9195926012127,-170.07492333750344,272.96949666567446
1025475,-286.0052871351403,-169.31900483875023,273.22756207794066
1025476,-285.5922577727705,-169.09973502660182,273.86693867700563
1025477,-285.7232050101555,-169.68925549375143,273.9441605494313
1025478,-285.6474770678078,-168.70076487959597,274.45499111823995
1025479,-286.41130962432953,-167.49942312719253,274.2859521930698
1025480,-286.68600014319725,-166.07937669617084,274.8417235617936
1025481,-287.45508137632714,-166.17567105518555,274.5119350671369
1025482,-287.85882875597355,-165.33644923850565,275.23332566942616
1025483,-287.6465387575987,-164.58184574659208,275.3379791829342
1025484,-288.24391093945997,-163.93015165553055,275.3779472611125
1025485,-288.4360587148263,-163.80691932978064,275.62291566573947
1025486,-288.8761708375928,-162.84042387311703,275.1537300168017
1025487,-289.54927974754713,-161.68329945589184,274.81010935384484
1025488,-288.95974565853334,-161.69167121949724,275.1778442220712
1025489,-289.3824507343061,-161.6930759901971,275.2046489970779
1025490,-289.210064489772,-161.67826502545594,276.1398298866325
1025491,-289.2827729301863,-162.4990533881262,276.2780333157933
1025492,-288.62858203118793,-162.29138825485353,276.3967278283668
1025493,-288.10610008109944,-161.60609919317054,276.5416236024661
1025494,-288.3206921612002,-161.40489907545808,276.1444786369164
1025495,-288.24199046849856,-162.37660741389828,276.9109255765761
1025496,-288.68502631761856,-162.62692224847112,275.93251400370167
1025497,-287.6452099195835,-163.32077715617132,276.78662120527855
1025498,-287.1016853136634,-162.74445336810697,276.7059332247088
1025499,-286.2820776685202,-162.64028295370477,276.45753472249805
