sample,gyro_x,gyro_y,gyro_z
1032500,-296.5911195304887,-179.50139227360484,344.5140009817612
1032501,-296.9247016597157,-179.67295299892305,344.75611045871835
1032502,-297.0110961714905,-179.37589036029337,345.2247568109322
1032503,-296.7286913220841,-178.96257218944336,344.96240019792964
1032504,-296.7965625386218,-179.26152120588424,344.24619417627247
1032505,-296.6245193550507,-178.61397880987093,344.30648623608903
1032506,-296.54793267508916,-178.70915525836483,343.92415693866604
1032507,-296.7381536448733,-178.91893339448023,344.33017691599173
1032508,-296.6444823337946,-178.71067725363022,343.554754125272
1032509,-295.549191505355,-178.8954332001607,343.5897774464361
1032510,-294.76695216808463,-178.6868252385146,343.42896231606153
1032511,-294.49682698497526,-179.004620166777,343.55549666294024
1032512,-294.2715763416933,-178.2475776265924,343.4084493873322
1032513,-294.49171618634705,-178.75020490840146,343.28038352251053
1032514,-294.7678209639655,-178.50686661509798,342.65350400542405
1032515,-295.26216318356035,-179.0510157980484,342.74152199965823
1032516,-295.2821696465601,-178.16100192939314,343.34529138826656
1032517,-295.6459171992194,-178.38611933795013,343.19488513852014
1032518,-295.8840361848071,-178.72847575401255,343.4746883354353
1032519,-296.370466267996,-178.7825512803194,343.49077313605693
1032520,-296.7162528438946,-178.55498944056873,342.8454553322606
1032521,-297.16594996955257,-177.99391358328745,342.99551155417805
1032522,-298.0635256661053,-177.95210859685318,343.4872293406252
1032523,-297.19413678950843,-179.01597951166048,342.8249164693228
1032524,-297.76857251753853,-179.17360023652134,342.3826147748723
1032525,-296.9539090589327,-178.8293308114397,342.5958024359821
1032526,-296.80667836087173,-178.2271533583989,342.9067304438315
1032527,-297.51422118475665,-177.60128800142556,342.6792566272986
1032528,-297.4887894256924,-177.33721682231584,343.36936115965716
1032529,-297.11777055409357,-177.01921487234867,342.92874380153074
1032530,-296.9087837046919,-176.68559774908044,343.28412727305926
1032531,-296.8539871420213,-176.7805422781898,342.2011590350043
1032532,-297.0376314885295,-176.6825076905753,342.58011727202074
1032533,-296.8684552520165,-176.70618753359312,342.68910857686507
1032534,-296.29050244568566,-176.38369624529065,342.330291667091
1032535,-296.7223319386144,-175.99767565092262,342.52256465046395
1032536,-296.3990696311394,-176.10062721632468,342.9990648363451
1032537,-296.5649672111659,-175.6099193179974,342.3258461676053
1032538,-296.5065827869594,-176.30066634118674,342.1287951333589
1032539,-296.1489127203353,-176.43945196837657,341.60763647584355
1032540,-295.6810520737894,-175.71220900853703,341.47415844767505
1032541,-296.1513080158324,-176.78142469278546,341.56474469152846
1032542,-296.0734886221431,-177.27131925548034,341.2478073673454
1032543,-296.00690860857685,-176.99346918278766,341.68675800007804
1032544,-295.8500255817309,-176.6390688896414,341.8063720571308
1032545,-296.53554030701514,-176.2608737061484,341.88168508767814
1032546,-296.5484829645038,-176.1012991332157,341.77152353245134
1032547,-296.03710625633073,-177.24886671575996,340.53695270341126
1032548,-296.199823949368,-177.12717574672922,340.0603967891912
1032549,-295.9783204993549,-176.89404368325103,339.99602918931134
1032550,-295.9205761345309,-177.661081177928,339.6402044061739
1032551,-295.8515610028039,-177.54956909503446,339.9042216649312
1032552,-295.7402170120362,-178.2414782888323,340.0124376679203
1032553,-295.91197552234286,-178.83949387416945,339.9347458693904
1032554,-296.8469231722238,-179.0913977124206,340.2367163121983
1032555,-296.91533864320263,-179.03483666957843,339.8320939841758
1032556,-296.6631422145824,-178.71552591790407,339.8914549634933
1032557,-297.1075446486495,-179.0269823926219,339.48550527440426
1032558,-296.5053847500827,-178.0372881486998,339.8590960195742
1032559,-296.80432152629146,-177.43026644960676,339.4810729213975
1032560,-296.3271034360412,-177.55968036927035,339.5209875559936
1032561,-296.18588392842116,-177.07377659793005,339.16907231272813
1032562,-296.712337972206,-177.21168421740552,339.2894665714868
1032563,-296.1329383570614,-177.4216866758953,339.0094134141898
1032564,-296.9951851202872,-177.9045473667458,339.5587000316358
1032565,-297.3460295469718,-177.88319826620847,339.1224862606846
1032566,-298.3785604404955,-176.95617953439506,339.90097615561524
1032567,-297.67219603203546,-177.25594854024058,339.73670862089233
1032568,-297.54723938756393,-176.6447897220719,339.5404661360344
1032569,-296.9554394601633,-176.74659792431373,339.9590459788076
1032570,-296.5584400294316,-176.8603372849725,339.8556301232597
1032571,-296.4719998551824,-176.73349202292565,340.03486512171077
1032572,-296.57699808423695,-176.89161995960274,340.54641436625974
1032573,-296.78199866809484,-176.10861978464933,339.77063801434
1032574,-297.51701279717923,-176.09867381144275,340.1671244571742
1032575,-297.25542337093464,-176.5893093246901,340.06320578958247
1032576,-296.6451119545752,-177.20118700236807,340.3746299551947
1032577,-296.34002453164516,-176.89855160281942,339.51556374509
1032578,-296.97075302487116,-176.39405253317966,339.9992334218362
1032579,-297.45454974254346,-176.1179559825287,339.6123252004836
1032580,-297.47800939238743,-176.81141818258,340.09863507015064
1032581,-297.5634027502552,-176.59378088649152,340.4523468504941
1032582,-297.5230753180211,-176.32929547426934,339.5690644210729
1032583,-297.4201331195894,-176.48219903594597,339.36686565897384
1032584,-297.138157877906,-175.82307049163032,339.11822642617693
1032585,-296.10378556920267,-175.89961424943024,338.5911299327193
1032586,-296.30013261819715,-175.16043539247752,338.45477861727034
1032587,-296.88452155046633,-175.8448250628535,338.3478397329663
1032588,-297.68616058980575,-175.62367785031768,338.50918582031466
1032589,-297.79197382550063,-176.46828574368843,338.19799156207347
1032590,-297.62572504797834,-176.17605698573885,338.9513141991319
1032591,-297.8624012820974,-176.5537507147519,338.7318055610704
1032592,-298.1135538002201,-175.99381696560116,338.22422423581406
1032593,-297.74990909250675,-176.51467926877328,338.33766060871295
1032594,-297.55890538328566,-176.03139427316205,338.6628607747244
1032595,-297.6543660126956,-176.29030084730994,338.9627791192816
1032596,-297.09371903990717,-176.20936693806055,339.2852708642344
1032597,-297.64010908713595,-176.1602324642822,338.8573876802882
1032598,-297.5626104348619,-176.63687693755048,339.65002797603097
1032599,-297.0812594078241,-176.24787645650153,339.9867685485451
1032600,-297.3514105137258,-175.88788471502036,340.24230967832943
1032601,-296.06880856965546,-175.28257556116475,340.5281392889965
1032602,-295.84396868913143,-175.4638560014251,340.60502213974587
1032603,-293.7940882757526,-175.48250925297242,341.2814333670227
1032604,-294.41161257240145,-176.26160086981568,341.07984093770017
1032605,-294.39470953177806,-176.32108428625634,340.38079172262
1032606,-294.4607168978921,-176.88698124221656,340.4023217856526
1032607,-294.6274621147875,-177.5049445677353,339.77967484484634
1032608,-294.42142410443626,-177.0758744937275,340.152400170944
1032609,-294.7199859619109,-176.57713543836337,340.2644077586957
1032610,-295.54837877009027,-176.6358732492631,339.3248790862473
1032611,-296.08543866498655,-176.66485490041484,339.2434053489849
1032612,-296.607654151065,-176.58558937880062,339.8712193469153
1032613,-296.50959432389,-175.87580317703697,340.0524858725986
1032614,-295.90915939856023,-176.21863395035933,340.2938834079361
1032615,-295.26766175792517,-175.80841670263413,340.08576525623135
1032616,-295.2916924643052,-175.7484527036614,339.4304162349957
1032617,-295.0947358255216,-175.36288231009573,339.9619910765767
1032618,-295.4377674196648,-175.42547867948136,340.05053728238516
1032619,-294.9644649401102,-176.19550897619197,339.76795755952514
1032620,-294.9890311749042,-175.88126089697755,339.3001357852781
1032621,-294.8494539923766,-175.76835397230116,338.99215222795624
1032622,-294.8482478528981,-175.74603909763795,338.6855087641378
1032623,-294.5480638280897,-175.2580911121184,339.297702979507
1032624,-293.4797406984786,-176.42298962586014,339.4307146506569
1032625,-293.6821386447982,-176.84821723232878,338.93575898403196
1032626,-293.2751796608275,-176.33878597527618,339.23711397598845
1032627,-293.75592131066475,-176.10081480325857,338.8439843263305
1032628,-294.4935872768054,-175.85515135759397,338.98008879338835
1032629,-294.6775038531807,-175.66963120436432,337.9983544854289
1032630,-295.37672875889257,-175.7066102332533,338.1979085525415
1032631,-295.2321945903485,-175.68346442970665,339.0793100766274
1032632,-294.65112367275214,-175.66639376481584,338.5533502731768
1032633,-294.21677898467215,-175.75241029275256,339.1515324839398
1032634,-294.71031640745576,-176.4332629547126,339.41899058525115
1032635,-295.07826650300865,-176.52633722938924,338.82317415859035
1032636,-295.08302757876476,-176.2273829989357,338.63802286504415
1032637,-294.93664415690694,-176.27887405712823,338.22360872184333
1032638,-294.8683640557561,-175.31471146435615,337.75425036837845
1032639,-295.5027225968093,-175.76885509803708,336.99151664715845
1032640,-295.8924353376006,-175.68350671599043,337.0340821942617
1032641,-295.69977222689994,-175.36837559135216,336.4546040662235
1032642,-296.08579264186847,-174.1791829803441,336.5997981894796
1032643,-295.98521404085585,-173.6385042354517,335.4262317189516
1032644,-296.08343883481444,-174.1731029620968,335.1660682812348
1032645,-296.2304708108523,-172.5277440277439,335.52724206859
1032646,-296.01051405891417,-172.6114679354123,334.95631090269455
1032647,-296.47297773596546,-173.03583536547035,334.96187915344444
1032648,-296.0842090221598,-173.3843229375011,334.0629384403897
1032649,-295.3981116113913,-172.78677908285783,333.7660257917265
1032650,-295.23013275522555,-173.3662781126051,334.37524619700866
1032651,-295.18291411851465,-173.10103204495493,334.50977079949763
1032652,-295.4516436470671,-173.4785139168673,333.8302692334252
1032653,-295.3026260962469,-174.75070195446924,333.0219181159584
1032654,-295.8413771943572,-174.3880788400235,333.9170523813786
1032655,-295.6243645461253,-174.06645680466903,334.29005472423034
1032656,-295.8705840540363,-173.49771381484044,334.2800019351968
1032657,-296.12233244319856,-173.2968261053122,334.14130624874264
1032658,-296.19234685256407,-173.26440163163426,334.2631371854831
1032659,-295.61192132570443,-173.78382959567801,334.08757488114685
1032660,-295.318524377077,-173.12635381730072,333.8419048369177
1032661,-295.02297139177296,-173.36868131229616,333.500479578964
1032662,-294.15335546244216,-172.0464935263422,334.06891644115774
1032663,-294.70534674756544,-171.94500872612662,333.7419842829513
1032664,-294.79043689085796,-171.81688804642093,333.78608597265077
1032665,-295.2844422424672,-172.01505300283523,333.9849918490294
1032666,-295.2685464965003,-171.77145281965247,334.17061146713445
1032667,-294.3304661957244,-171.61223002072506,333.62182000076837
1032668,-294.6518660652198,-171.62611015831448,333.2122141185632
1032669,-295.23184475765186,-171.15707400586862,333.2206127606686
1032670,-294.573825697866,-171.15463581003064,333.3499725044548
1032671,-294.7297245035764,-170.45708889968407,333.5456788042612
1032672,-294.4384101459744,-170.225451722381,333.395583183801
1032673,-293.8938228343596,-169.40687135442454,332.8016523599333
1032674,-293.0758701182281,-169.3741263578407,333.1642838154163
1032675,-293.9178555358569,-169.74783465282238,333.0739773380385
1032676,-294.1109329180516,-169.99577161813767,333.85154831790805
1032677,-294.18828757745894,-170.73154450893455,333.9744812605652
1032678,-293.16055747949105,-170.32494148211686,333.4803102782029
1032679,-292.87057807778666,-169.90921038425253,333.88032897108576
1032680,-293.61225188884475,-170.54908024177547,333.84188125031903
1032681,-293.56152118852026,-170.47392419935858,333.76589739156645
1032682,-293.50585433856014,-170.49025524406062,333.7431217228226
1032683,-293.2202463216328,-169.61382087727262,333.9910890036475
1032684,-294.03403607274333,-169.52934026801287,334.73111069511947
1032685,-294.0789364041171,-169.96025906088155,335.5144325364456
1032686,-294.01517741321777,-169.80481900303178,336.07965772823474
1032687,-294.2081027189165,-169.91495482218716,336.30626740926897
1032688,-294.1525904237358,-169.88073915741955,337.2453730665208
1032689,-294.3305961083576,-170.30241072989128,337.4266975265479
1032690,-294.630381565573,-170.271646915354,337.12739120884515
1032691,-294.79704264227365,-169.79838714365184,336.68538840037655
1032692,-294.3382237127682,-170.09931847781436,336.7930400533431
1032693,-294.75574883312805,-169.74815081886774,337.0929826458265
1032694,-294.96212086460775,-169.95360734810288,337.22508612921877
1032695,-295.38289122478915,-169.76785854471584,336.78423030695797
1032696,-295.6423855070468,-169.8120592026616,336.6662703489187
1032697,-295.89119081092366,-169.9946428480061,336.13974436600404
1032698,-295.62587743228625,-171.03395628835486,336.3464884017743
1032699,-295.3754881642906,-171.69138933545605,337.0100797546808
1032700,-296.1916506548014,-172.41156869370494,336.8834676374438
1032701,-296.68893773488895,-172.43244068407765,336.55649153229615
1032702,-296.65557424591873,-172.42575201589457,336.3555992971188
1032703,-295.4714191016517,-172.57073422045212,335.9549483865504
1032704,-294.9751392643893,-172.1953403723381,335.6407674748294
1032705,-294.8088227346458,-171.77285444906508,335.89295061816017
1032706,-294.1963020587876,-171.23648364221543,335.9712612024142
1032707,-294.97644445538026,-170.49675129025252,336.58444166954814
1032708,-294.68504405213235,-171.22224783647155,337.2107551799134
1032709,-294.6760685022839,-171.73567756269688,337.4524772107106
1032710,-294.6809411100485,-172.1960338601611,337.76766166659354
1032711,-294.76163131205453,-171.68845730767652,336.96168953092945
1032712,-294.7420856911143,-172.2064048375714,337.2206949721031
1032713,-294.7017668520585,-171.86748353363117,336.84910042428737
1032714,-294.7446372713155,-171.68648309286002,336.7974294671714
1032715,-294.8921571818928,-171.56256177424325,337.1356219101188
1032716,-294.598776832451,-171.8773383820841,337.27777305625006
1032717,-294.6191210122939,-171.9474381758941,337.3083164932099
1032718,-294.4429667108721,-172.07312797802484,337.8426297631674
1032719,-294.19235977273104,-171.6136351525786,337.47298075098513
1032720,-294.73423094187825,-171.23260646978002,337.77974787729966
1032721,-294.885942769519,-171.56670553474814,337.5105143035893
1032722,-294.4188904230757,-172.2851877151855,337.5053939927179
1032723,-294.8481268794829,-172.48718604343998,337.6324167039643
1032724,-294.8584570639145,-172.15810210888463,337.17791043173344
1032725,-295.0795840781832,-171.95639910913252,337.3253311334311
1032726,-295.3576389672889,-171.8971209497517,337.8104305872908
1032727,-295.649632007119,-171.85617002283414,338.23109006896294
1032728,-295.80340451015246,-170.7815045365363,338.38148085429685
1032729,-295.7843590714944,-171.3953339707807,338.89036490710095
1032730,-295.4501089924624,-170.93518437989303,338.4282436561868
1032731,-296.0226706100277,-171.44481780293634,338.0882516715625
1032732,-295.5652976252714,-171.0531853045725,337.3327965495186
1032733,-295.47465317927504,-172.06624823765597,337.7915099162841
1032734,-295.4808233355131,-172.46471864579505,338.15081969793505
1032735,-295.13649622255025,-172.14544965001625,338.2944128850628
1032736,-295.72821567938894,-172.708976715641,337.92030903976547
1032737,-295.3785364093511,-172.89229960015157,338.0948285081798
1032738,-296.1159286143505,-173.2178740328645,338.62702225574736
1032739,-296.0228580284315,-173.79046992350425,338.44038719783936
1032740,-295.6822759495869,-174.37607149269067,337.9443611315876
1032741,-296.74922925469747,-174.47121201776844,337.570859579081
1032742,-296.35807991499263,-175.0880427028024,338.3433055049939
1032743,-296.8355815658197,-174.65622671629447,338.0365194883379
1032744,-296.7815695850667,-174.09201852518953,338.4568762489249
1032745,-297.4451968127751,-173.6405038925421,337.25766454663864
1032746,-297.08744749613146,-173.20727794546818,336.8305238393482
1032747,-297.3676278573661,-173.08258923986017,336.560070653846
1032748,-297.06414892811836,-173.9665391931313,336.64984516157404
1032749,-297.2637938389464,-173.90858244665813,335.9362407439675
1032750,-296.43132659216946,-173.70483683378106,335.41891601359134
1032751,-296.68693362154477,-172.59604700974643,335.34198208536793
1032752,-297.71106416310846,-172.09357647408254,334.91560591186504
1032753,-297.56050951137695,-171.30385479363792,335.1420146978732
1032754,-297.98108043737017,-170.8814193930885,334.72246896701546
1032755,-298.0863996166939,-171.0560427539196,335.58507371479095
1032756,-297.8078921399176,-170.49806846895882,335.2312465655508
1032757,-297.41099490318555,-169.59600818832934,334.81713110292884
1032758,-297.075745962697,-168.80391610063836,334.77582691290814
1032759,-297.2132435332486,-168.66404848595553,334.5816955268129
1032760,-296.3326211599942,-168.5348432078461,333.3928060737015
1032761,-296.77516298948706,-168.16605588661326,333.4521704705336
1032762,-296.08985860917176,-168.0273181833738,332.9705618602968
1032763,-296.3649358025837,-167.24697388802963,332.95138117767965
1032764,-296.10737262174865,-167.50130153626571,333.0768922428245
1032765,-295.38266843227905,-167.9206607153863,332.7357420554833
1032766,-294.8849576023557,-167.77726872117057,333.0922423547808
1032767,-294.6670928834018,-168.0104334121373,333.04340390886165
1032768,-294.44202311390995,-167.8790799305368,332.4604890946098
1032769,-295.03093217969183,-168.17401529013472,331.57294455001636
1032770,-295.00730268794763,-167.81814010963413,331.80232247609877
1032771,-295.9704922086336,-166.5379372950709,332.1312581435838
1032772,-295.95185900876686,-165.994489227774,332.2932486297476
1032773,-296.47928005631525,-165.5322220810901,332.2813851001057
1032774,-296.8148192078854,-165.46461044572078,331.31836328658414
1032775,-297.5685654352512,-165.15516886979609,331.4387819129449
1032776,-297.0933083550384,-165.02077416093178,331.25542957382794
1032777,-297.0283281715621,-164.9409932702568,331.08641553369324
1032778,-297.8470957691526,-164.63976071361924,331.33548204924443
1032779,-297.1153325338501,-164.42671215940535,332.39876023741573
1032780,-298.36610786136305,-163.404524390619,332.5524827376732
1032781,-298.04200268830095,-164.65406013392038,332.7233559533164
1032782,-297.8838964792624,-165.3281353022463,332.3670689835818
1032783,-298.67806560283566,-164.98630241059521,332.04438361057794
1032784,-298.5345603185453,-165.22713556208953,332.05254216282935
1032785,-298.4975007084777,-164.8335914423927,331.55156176531085
1032786,-298.1021197216228,-165.41798187844373,332.15450776166495
1032787,-298.67222266584196,-165.59534993977695,332.485856467593
1032788,-298.15682509454064,-165.48461857727796,331.172984328209
1032789,-298.1122209668198,-165.19450738272826,331.75312790152844
1032790,-297.3941358491264,-165.28462929358258,332.94633424105854
1032791,-296.68798697654336,-165.5952863746314,333.1346049751635
1032792,-296.35887264103746,-164.64825598610958,332.64047703280255
1032793,-296.3328462676108,-164.61670490478568,333.2758813234291
1032794,-296.25537890482553,-164.8974395590704,332.9545156412758
1032795,-295.8356688970685,-164.9660015384916,333.4900551804635
1032796,-295.954019680463,-164.5392359908407,333.0175352322117
1032797,-295.9062064474199,-163.83386245283342,333.2532737749331
1032798,-296.507167965657,-163.82818285622182,332.26530754075094
1032799,-297.3032107760531,-164.43267620109495,331.83516677188766
1032800,-297.0922532786709,-164.60169240124515,331.4656708977843
1032801,-297.2742661987934,-163.73498034315182,331.0252756572613
1032802,-297.8193013598051,-163.67584685623984,330.4735098348256
1032803,-297.8937447946525,-163.01526891715108,330.6340710571069
1032804,-299.112172403066,-162.44103768045474,330.798881390578
1032805,-298.7705896303333,-162.30730025279976,330.367453019364
1032806,-298.8911474516731,-162.56103902629673,330.31655825281683
1032807,-299.1065230900727,-162.49443667657104,330.6840221491421
1032808,-299.25025824496913,-162.6175404494762,330.12600937096255
1032809,-299.0828781953652,-161.8646098607329,330.2222357822497
1032810,-298.7938142679018,-161.82647918889512,329.7729868062891
1032811,-299.08072646782864,-161.37463295295206,329.3174524738282
1032812,-300.03223840782886,-160.8346105140905,329.2731365589353
1032813,-300.66340188359965,-160.50585911816015,329.01177063163016
1032814,-301.27792628069295,-160.7529404169639,329.07184124321935
1032815,-300.3496912433729,-160.2738859069358,329.5278588615659
1032816,-299.9914140984227,-161.08699588787212,330.8553381349155
1032817,-300.06685466524016,-161.7898591660213,331.0794758862182
1032818,-300.10761293127956,-162.99577884631066,331.1057176403089
1032819,-299.98923201823214,-163.296252419224,331.73292997759114
1032820,-300.3304196328982,-163.27934280979463,331.83304322837057
1032821,-299.1623098748413,-163.21582484264175,331.7510216439704
1032822,-300.0892424982164,-163.34556391795886,331.4752246448306
1032823,-300.7408654686764,-162.99417936503906,332.0842843790615
1032824,-300.77490300883045,-163.024324850664,331.14252182225033
1032825,-301.95231008188176,-163.56829500011622,331.17699261428436
1032826,-302.04283145046054,-163.81275018791007,331.17607286825967
1032827,-301.9289394173522,-164.1102172339631,331.3859966564114
1032828,-302.0851641218376,-163.95455965872597,331.3076164007065
1032829,-302.46502355765,-163.4595770665591,331.4978254395049
1032830,-301.999693506107,-163.36085280990477,331.3303030659697
1032831,-302.24575096161965,-162.22498350453202,331.0821545496099
1032832,-302.2410071982315,-162.34720973462143,331.03333453305675
1032833,-301.3814705718808,-162.09570939625465,331.13819862478306
1032834,-300.91816507807926,-162.808257659808,330.4929913963327
1032835,-300.31246775042314,-162.1520103207228,330.29959593955897
1032836,-299.6042628994029,-162.41387047734008,329.873612366541
1032837,-299.85899359706184,-162.36858900658802,330.5850928137278
1032838,-300.04767878745224,-162.8194457103128,330.5015170779764
1032839,-299.59826208182267,-162.55588345126225,329.8554179347695
1032840,-299.37858232785874,-163.02297008657396,329.629737555125
1032841,-299.33311228423787,-163.5926471588811,329.2269183033841
1032842,-298.9252654683294,-164.31411571737678,328.897922924187
1032843,-299.1241371851227,-163.95642925001147,329.66093661589446
1032844,-299.45838372966523,-164.1721917792488,328.86946307782125
1032845,-299.9875739832785,-163.49432419150398,328.7604518263404
1032846,-300.08038565760734,-163.4485419290289,328.768265492537
1032847,-300.3042864623759,-163.48651133104883,328.63826257750975
1032848,-299.78102187737784,-163.19838267248463,328.5710312320136
1032849,-299.60308065889393,-163.5314657361418,328.58966712002274
1032850,-299.6985909451178,-162.74002632858918,327.8053288492286
1032851,-299.8882405688091,-162.90910094858646,327.3435690412108
1032852,-300.3735018263422,-163.189759749726,327.55419268958485
1032853,-301.2683706651903,-163.74918576989515,327.91106189982924
1032854,-300.75463202492085,-164.71745711109264,327.7608735511856
1032855,-300.7011467335859,-165.29561228676485,327.03872778934783
1032856,-300.72176261409766,-164.1954834007044,326.5192403380303
1032857,-300.85559889982636,-163.30342886499997,326.06613666575197
1032858,-300.5817825250025,-162.96590646678692,325.8217491868133
1032859,-300.6361584951776,-162.86533128039883,325.91523738709196
1032860,-301.4897787146403,-162.34014244304288,326.46216681465546
1032861,-300.88881714922735,-162.39823322466916,326.1886427441851
1032862,-301.2133757299791,-162.19377547623426,326.29385765544197
1032863,-301.40265945885733,-162.51931138900028,325.28144226630803
1032864,-301.77651155818546,-163.01989019798643,324.2476932089419
1032865,-302.4720997113059,-163.28221314865428,324.13382265952544
1032866,-302.7807842493332,-163.14328866310998,323.6267559154299
1032867,-301.77688529183695,-162.14521953208836,323.0529650886416
1032868,-300.965882379799,-162.6071455197639,324.2648795738622
1032869,-301.74702736927566,-163.35868759244568,323.6020455157829
1032870,-302.33259405871917,-163.581030734703,323.8321113527113
1032871,-302.50588636699536,-163.47972701814524,323.95803185087203
1032872,-302.38295242387306,-164.25278161346966,324.4152679481531
1032873,-302.1946229804523,-163.83381405513774,324.44448218289097
1032874,-302.54346527147464,-163.58707777934356,324.2663406303812
1032875,-302.8491054255788,-162.56011473279304,324.69734061931746
1032876,-301.9712514042447,-161.86503955129106,324.95470279462
1032877,-302.18156237304925,-161.88789393799155,325.12201531167204
1032878,-302.61698427073816,-162.3643858248282,324.97826792296644
1032879,-302.25598910443665,-161.69533941930038,324.77263953819863
1032880,-301.79062674783177,-161.99338771574543,323.6457359277973
1032881,-300.49759233820555,-162.44124169623552,323.2251770021769
1032882,-300.70145972498597,-161.94283741495977,323.6777664247725
1032883,-300.30156947234434,-162.13553864420123,323.80627230447567
1032884,-299.8597189305215,-161.80132415147278,323.90543586468556
1032885,-300.8951103942017,-161.64374088903375,324.2802380562246
1032886,-301.852500096079,-161.56258104845958,324.8064154633424
1032887,-301.76964203530576,-162.02699870053357,324.4707285451449
1032888,-301.9977601117,-161.39971441353615,324.30106113129216
1032889,-301.7876439271866,-161.86524234949042,324.36412515739835
1032890,-301.6259099713155,-161.13280590961338,323.8702237635153
1032891,-301.206358984116,-160.72094172267492,323.71098950319197
1032892,-301.5418911790542,-160.68995520817379,324.30206895529886
1032893,-301.2903482439092,-161.01289717607997,324.7340448619244
1032894,-301.58946533934187,-160.8063325425559,324.12433526231456
1032895,-301.56188039503735,-160.6160579571547,323.75858088541696
1032896,-301.6779720183502,-160.845900406428,322.8952835120196
1032897,-301.59848311869064,-161.89417933466547,322.56942434774334
1032898,-301.81213175345584,-161.49324473191473,323.2273560096465
1032899,-301.9847020224332,-161.88665440036132,324.1319794807627
1032900,-302.51730048116957,-162.60847306622165,324.7095117408959
1032901,-302.91148639791714,-162.95051849935246,325.0300654458243
1032902,-303.696053773077,-162.61791991754063,324.56925035581537
1032903,-304.15032819664685,-163.2576387689314,323.53404771085155
1032904,-303.60601674506876,-163.62655086717615,323.7100456414903
1032905,-303.0841910599156,-163.38820959414133,324.43637831652325
1032906,-303.03327897262005,-162.59387815018385,324.4544708195268
1032907,-303.5747553498787,-162.92613378838877,324.53343520421726
1032908,-304.0206840908183,-164.43271943579336,325.1885593389392
1032909,-304.001440385179,-165.21259825081614,325.23795492603557
1032910,-304.3732210769097,-165.44989631301868,324.72738555833087
1032911,-303.9855844975626,-165.12201115178266,323.24995739649756
1032912,-303.56005064098946,-165.07776990389544,324.06393729189784
1032913,-303.12715678011307,-165.74286764352632,324.2135923105296
1032914,-303.4579006998591,-166.02694231026885,325.1260896353259
1032915,-303.5243492878092,-166.0947365087132,324.32219998672616
1032916,-303.24167591873,-166.5015604043438,324.32799693697865
1032917,-303.5875746909508,-167.36056773687392,323.94240494232844
1032918,-303.78095984726593,-167.23330495108488,324.0624160678759
1032919,-304.23537262091486,-167.7521562969102,324.0574367565093
1032920,-304.4850025030998,-167.32960062933932,324.7140004162534
1032921,-305.20034973788063,-168.20558703516974,324.1410098019003
1032922,-305.22247252841447,-167.91133020130223,323.84252667615146
1032923,-305.62481577048965,-167.5956208342081,323.5216159876348
1032924,-305.4795733650233,-168.22563631078287,323.2712807833779
1032925,-305.81018927253467,-168.48795441283352,323.4532211564588
1032926,-305.62208694691964,-168.56220479340118,322.7613370466458
1032927,-306.7106578812411,-168.74670671350353,322.4969301555855
1032928,-306.31621965477996,-169.04826982043247,322.59755663508747
1032929,-306.5699574868312,-169.38668828523646,323.0043864629136
1032930,-307.16406139302035,-169.21276676238867,323.15187220400435
1032931,-306.8122979286886,-169.20928504787605,323.7604544601827
1032932,-306.11020627071525,-169.44106603098624,323.74962917993963
1032933,-306.28398667199133,-169.77385849090052,323.9630185132868
1032934,-306.1575672997774,-169.9437414269182,322.9454378391762
1032935,-306.1959278962248,-169.30114992484263,322.84422396074007
1032936,-305.08123359415987,-168.92577498698432,322.6513653920763
1032937,-305.5150035037069,-169.44887585842991,322.4132051190497
1032938,-305.34228217362795,-169.80203860405413,323.4444667890849
1032939,-305.8837723323766,-169.35912747735804,323.4703303147359
1032940,-305.50385057740533,-170.35800431066997,322.6857706936216
1032941,-305.0110060244782,-169.79014501288776,322.1178326153547
1032942,-305.4135032835653,-169.92129004336368,321.853082141207
1032943,-305.61784824146076,-170.35871196446112,322.2799826086155
1032944,-305.14799608129266,-170.59713563098447,322.25449979541395
1032945,-305.57104882035173,-171.15798757644842,322.5101620258244
1032946,-305.1912927280651,-171.12962419107845,321.81033447647064
1032947,-305.6192677934183,-170.67855994213477,321.90007111311786
1032948,-305.35261264450884,-171.3141226682682,321.44114616845985
1032949,-305.18965617901296,-170.89050449113506,321.8815487678236
1032950,-304.54785539839276,-171.40639868010078,321.667659940125
1032951,-304.4063494008374,-172.04082963023106,321.8735197056074
1032952,-303.2778894210719,-171.68622843512776,321.7882562202084
1032953,-303.3542872504037,-171.93325580457633,322.0849279389271
1032954,-303.2960880645154,-171.84765022251648,323.1362116778317
1032955,-303.6653356120288,-172.13596085292176,321.8105293451598
1032956,-303.7640581717986,-171.7710350610849,322.9232618170841
1032957,-303.8840264633761,-171.26315301901585,322.72231217299213
1032958,-304.08338306996,-171.53504948115722,322.81455941392545
1032959,-303.66016786603126,-171.47982795429704,322.35667192122685
1032960,-304.46781511387957,-171.74397293531874,322.58710849938836
1032961,-304.4401611372859,-172.45465749144702,323.1888987323761
1032962,-303.77187180561214,-172.69017398616327,323.6272197510581
1032963,-303.3851470320642,-173.35746004929666,323.60944727551697
1032964,-303.77300655941707,-173.43355846724376,323.26569873675885
1032965,-303.8315168868894,-174.044303130823,323.2026816771877
1032966,-303.21239666015873,-173.91744029067382,323.5669949702955
1032967,-303.8170692811979,-173.85394178723496,323.7075145759734
1032968,-304.06266849407376,-174.9067276505505,324.2574987780066
1032969,-303.3246755924069,-174.38411631194845,323.84165157398775
1032970,-302.7030119366824,-174.45072285420443,324.21657133249454
1032971,-303.3887477596268,-174.66818195254996,323.8440068794491
1032972,-303.32001915064626,-174.25806131803984,323.3531220363893
1032973,-303.60143891869484,-173.3905141406724,323.5503124029732
1032974,-303.66176263156694,-174.27882500635255,323.63995075936634
1032975,-303.283495379451,-173.716997618684,323.60335520519135
1032976,-302.65273058882553,-173.83182627969578,323.6665757825163
1032977,-301.7448647126313,-173.83177157503508,324.7339106142864
1032978,-301.69978954569336,-174.17824059399567,323.7469323136166
1032979,-301.9605659845773,-174.1994632427573,323.5509944388254
1032980,-303.1147193783528,-174.67662029192712,323.44032609649474
1032981,-303.35765005958285,-175.26279421412073,323.167874710046
1032982,-302.9115516443662,-175.8960030983438,324.44252137898263
1032983,-303.90082808529314,-176.0561304869638,324.3385924095149
1032984,-304.5147536055263,-176.3306855210886,324.75328083330584
1032985,-305.02817664076196,-176.50312671088815,324.8527852739244
1032986,-304.9377741667233,-176.64994159920747,324.275879371338
1032987,-305.7647623345471,-176.59399072683962,325.0521483583659
1032988,-305.82496011728983,-176.09233895616435,323.9431780356111
1032989,-305.5904478367557,-176.64474496932058,324.2813731507183
1032990,-304.3784281225535,-176.60142860034884,324.0677879871475
1032991,-304.20659695649266,-176.62763842209364,324.15254312865596
1032992,-304.0267717302413,-175.70571548817657,324.40883238537833
1032993,-303.2412384256731,-175.17341449258276,325.1643204786393
1032994,-303.21271819026475,-175.09064880291893,325.9757839620566
1032995,-302.73488110159315,-175.7700932757604,326.09305883818183
1032996,-302.64481130404164,-175.86347638655357,325.95989720700356
1032997,-302.2801679746699,-176.58111224392826,326.0092544594256
1032998,-301.835036280889,-177.67853658880466,326.31630041106007
1032999,-300.95786470863226,-178.55930349589315,326.4339981296069
