sample,gyro_x,gyro_y,gyro_z
1031500,-297.85751113039845,-183.5479770435552,330.1439995260797
1031501,-296.7748011337352,-183.43939747876627,329.9792905422838
1031502,-296.21047399799824,-182.92730724900719,330.0075706373566
1031503,-295.8392040460895,-183.16400232224936,329.56504172159754
1031504,-295.8985263713348,-182.644240814343,329.1367694946119
1031505,-295.9071259909461,-182.986172636954,329.1837060934843
1031506,-295.6006071088918,-183.86263373766732,329.4437832972146
1031507,-295.4189536124247,-184.03596656640013,329.2726029556699
1031508,-295.2420149436234,-184.4724500218712,329.338676078079
1031509,-296.1813038237728,-184.24984298933566,329.6172199643161
1031510,-296.080882971579,-184.72208758353642,329.85976152151596
1031511,-296.7386115497147,-183.2638105732262,329.01373353611115
1031512,-296.92587666939625,-183.59787676408462,329.5526414408069
1031513,-295.92003526702797,-183.82248946386292,329.9991219850341
1031514,-295.77700421790416,-184.52883521352788,330.19938600509755
1031515,-296.2403917331669,-184.74014388451886,330.4845187689299
1031516,-296.4224374850912,-184.73850348078454,330.267979749867
1031517,-296.421399939405,-185.18936186675612,330.252222827442
1031518,-296.11715225587614,-186.01939926867908,331.096631087436
1031519,-296.75097458265367,-186.03745740031138,330.5924859372641
1031520,-296.22065235539026,-185.48341029742568,330.3450742036711
1031521,-295.9999945350104,-185.9076821764168,330.7150409011516
1031522,-296.1749344365174,-186.0722362967129,329.57658798757154
1031523,-295.7791185235213,-186.35897915230328,328.97441037126225
1031524,-295.12885173090024,-186.17375555584874,328.736121201297
1031525,-296.09645994866173,-185.64861008705842,328.58142915850436
1031526,-296.50136816212716,-185.95222705311252,327.59279491177796
1031527,-296.39305202492636,-186.21101483500865,327.4653760090389
1031528,-296.11397277094056,-185.58599344113293,327.8972584758547
1031529,-295.36566427360543,-185.75171893064157,327.66456237588864
1031530,-295.44923051117445,-186.454229294887,327.80164460730845
1031531,-296.86653148674344,-186.27619976004823,327.50011751195575
1031532,-297.18475621268686,-186.225382842553,328.3741337373874
1031533,-297.8066237255222,-186.34324092785414,327.847547905574
1031534,-296.8828848558771,-186.48138594754312,328.6152535670815
1031535,-297.11144778896255,-185.90008344841075,328.89889735554505
1031536,-297.6600454417726,-186.37628654712464,328.38365603581246
1031537,-298.3897605374258,-186.4263120813802,328.13353606137326
1031538,-298.6595270754129,-186.29014325223702,327.91703354913665
1031539,-298.8846973568681,-186.75096356036957,329.13021008454643
1031540,-299.19074165700926,-187.1104792762634,329.5703328272761
1031541,-298.37120966107614,-187.10293962147188,329.5521148853448
1031542,-297.97549618097764,-186.83277049208954,329.6045407185873
1031543,-298.2285771406118,-186.68157822354743,329.18653266483483
1031544,-298.3350489853085,-186.74974624332427,329.14689907696874
1031545,-297.8369361744894,-187.35916780457072,329.57569900084593
1031546,-297.5766012067571,-188.23693472228737,329.789093424297
1031547,-298.2269672339546,-186.961356317211,330.0632518212995
1031548,-298.35102850494513,-187.1046980647938,329.64200709905333
1031549,-298.13953929114905,-187.28871943422664,329.2029018812457
1031550,-297.91598042999743,-186.50013562605403,328.7306297888374
1031551,-297.25576083705795,-186.7917321583479,328.67970457390703
1031552,-297.22304385997467,-187.12963087767304,328.5102830267388
1031553,-297.3884668476268,-187.7759337243113,328.4917850448561
1031554,-297.1307234468732,-186.36587698627164,328.32811737481717
1031555,-297.2882434466635,-186.5716305938332,328.6157540192256
1031556,-297.44944117705046,-185.7985661483387,328.79617090862064
1031557,-297.80314214195744,-185.95326862724002,329.1783566537692
1031558,-297.51079648486615,-186.16860040304718,329.57430495322865
1031559,-297.916395495191,-186.1369780338949,329.5946948930642
1031560,-298.5122097018355,-186.51756247200785,329.79943229655026
1031561,-298.4149080185036,-185.66682198957335,329.7742667787212
1031562,-298.11846557746185,-185.4480119118234,329.777432858038
1031563,-297.6551760064933,-185.25570378872314,330.53676064821695
1031564,-296.83104019690813,-186.16861336989905,330.94757608544387
1031565,-296.2916673277398,-186.51563939717994,331.08722162964204
1031566,-296.5062444215395,-186.76933178707435,331.6737597548959
1031567,-295.85960658015415,-185.7331613752865,331.8839673135136
1031568,-295.68359096166387,-185.6321426677721,331.9276268656287
1031569,-295.2255743650563,-185.2191658955113,332.10020720851935
1031570,-295.5702076929858,-185.470097465187,332.3629864018095
1031571,-294.5989984193081,-185.8002779886117,332.01726643775623
1031572,-294.4332443322221,-185.23123235891003,332.143106943038
1031573,-295.22475807159054,-185.5227789251053,332.10941397967116
1031574,-295.34272553338025,-185.15772985776005,332.1300040590956
1031575,-295.3897324406739,-185.64686138274882,332.69802598023716
1031576,-295.8684829805216,-185.83452089835336,332.0380828302326
1031577,-295.8134887432943,-186.32723562856194,331.79058140973206
1031578,-295.60306103510203,-187.0352330336181,331.2657809828888
1031579,-295.32828711257184,-187.51437041143376,330.7310997373448
1031580,-295.103962446539,-187.3951160285889,331.0142957759178
1031581,-294.4717791485647,-186.58209185851567,331.69697650877686
1031582,-294.2433670196892,-186.38887496604127,331.5735141998213
1031583,-294.16758783227147,-186.40253763295783,331.40951499313053
1031584,-295.2064803307943,-186.7164237998643,331.2846692080422
1031585,-294.88050957829455,-185.8221228813286,331.21707728137943
1031586,-295.1405169638485,-185.66623084511733,331.21812682262384
1031587,-295.2420031825368,-185.8708372363742,331.1619675218725
1031588,-295.46431785804253,-186.44597235180825,331.6455644282186
1031589,-295.08811650286054,-186.21186016537263,331.6975609796696
1031590,-296.3693312948211,-186.29441484583444,331.8979248542482
1031591,-296.11347771562527,-187.40880710657072,332.38940046594917
1031592,-296.19859979041036,-187.209009893231,332.53501157053336
1031593,-295.6795984214014,-186.6080549354757,332.94941510139
1031594,-296.4983273612929,-186.86006842448208,332.92876751966173
1031595,-296.55234038337426,-187.0607511510623,333.2856789326234
1031596,-296.454466304835,-187.25255975590798,333.6472921589144
1031597,-296.50732633561614,-187.3336600000012,333.34294696716904
1031598,-295.4307023733401,-187.026827078603,332.7972905400889
1031599,-295.09407202925274,-186.65497803819127,331.6837728117204
1031600,-294.99530006553346,-186.13056061078646,332.05087047539706
1031601,-295.00410382929664,-185.87360710706525,331.96263086728106
1031602,-295.28039508076085,-185.14100072203226,332.4064376490424
1031603,-295.4421857182367,-186.30510855878063,333.04200003656905
1031604,-295.58466975933527,-187.13434831859192,332.51042750435124
1031605,-295.12294748454684,-187.099666696451,332.41135415733527
1031606,-295.36706351692453,-187.16519170357145,331.69810318256395
1031607,-295.23237313534696,-187.54001813491053,331.2229249699526
1031608,-294.78277326672054,-187.4057333852475,331.01539609062456
1031609,-294.6036701139475,-186.463069719347,331.97938116169195
1031610,-294.69051195488237,-186.32584529582397,332.23250845088046
1031611,-294.33445364833176,-186.6391562901555,332.72162321463
1031612,-293.4099597592658,-186.15344163599843,332.37952059243196
1031613,-293.1721653091304,-186.30705610918557,332.2391748502974
1031614,-292.9233006019098,-186.38204213846754,332.5522897859993
1031615,-293.6038270312553,-186.43712530523746,332.81710049550054
1031616,-293.90384576801137,-185.66369253074234,332.9803789764223
1031617,-294.6444166318586,-185.63385268000454,332.5969035888496
1031618,-294.7270384447961,-185.168190508321,331.57825975696363
1031619,-294.5014895861925,-185.71017402127177,331.3589591733054
1031620,-295.3030561164028,-186.06273289858865,331.1380254621578
1031621,-294.9373798754066,-185.77432491446405,331.84571740148
1031622,-295.3386032631379,-185.97044325830808,332.12401118307156
1031623,-295.8364994418014,-186.04838427371195,331.0879507658608
1031624,-295.7082942906065,-185.25006271117977,331.53845278109145
1031625,-295.945455397178,-185.3274732592198,331.4288073740407
1031626,-295.77216270399947,-185.14323808811636,330.90429443284046
1031627,-295.73364494063486,-185.1631830037591,330.82567267418636
1031628,-295.65533012325267,-184.7363402905748,331.00875719213934
1031629,-295.19863902838125,-185.3005379014816,330.76405580928775
1031630,-295.06999835721615,-184.7984527102877,330.4991025945554
1031631,-296.18852609587725,-183.86077595079894,330.74665917323335
1031632,-296.0236044549649,-184.42877946216936,330.56596384696996
1031633,-296.52209968189703,-184.70265584549375,330.53314598582256
1031634,-296.27642990907106,-184.41993959610616,329.88653355247186
1031635,-296.00309564797027,-184.915307056787,330.4628291323033
1031636,-295.57968616580933,-184.34819261811677,329.8698040840602
1031637,-295.7917966443817,-184.0392767246608,330.03505319355776
1031638,-295.2037070043894,-184.5814497391313,330.0957700383479
1031639,-295.27321449255436,-184.00270710860872,329.3197386958886
1031640,-294.6212328122827,-184.10727450024675,329.48319747810774
1031641,-294.76591775713354,-185.24865124103158,329.7525637976333
1031642,-294.72688489872996,-185.23728818853883,330.3952967610091
1031643,-295.04858161701384,-184.73297632814067,330.57382071504026
1031644,-294.9237218794568,-184.4271135424715,330.5810721806602
1031645,-295.5318664516104,-184.20720038764694,330.0796629347534
1031646,-295.1447939238728,-185.1873175782031,329.9836207519471
1031647,-294.8001793778699,-185.08453995687404,330.46723910480017
1031648,-293.8497547802931,-184.614803044719,330.8420566382571
1031649,-293.829551140299,-185.08733693251187,331.5222193695746
1031650,-293.2484605761535,-185.0949834837528,331.6262767011156
1031651,-293.0178682975653,-185.35209128109966,332.03241385461297
1031652,-292.0756889292946,-185.74043297190863,332.3724206241337
1031653,-291.70850469104465,-186.43291030795496,332.5094168481339
1031654,-292.3390464036319,-185.84459778574995,332.9493935104836
1031655,-292.7200830124475,-184.9674005957027,332.55670418810655
1031656,-292.66879492410175,-184.70250810458805,333.09063169610766
1031657,-292.15955622124545,-184.29641459996657,332.9642978926246
1031658,-292.10145369695203,-184.3293748540832,333.6031001931775
1031659,-291.23806588404665,-184.24723867098947,333.2601203952185
1031660,-290.956776939533,-183.81224211691986,333.28880763219337
1031661,-291.296693019116,-184.8211576657885,333.05048184322834
1031662,-291.513767452045,-185.45045810050655,333.0199835188093
1031663,-291.87600148718155,-185.73084504836885,333.0136729292776
1031664,-291.9677942065096,-186.28745147027556,333.4259125264727
1031665,-292.7714064017554,-186.99220069740986,333.98006058572304
1031666,-292.4083539235737,-187.24604097285092,334.64202457117557
1031667,-292.6298219105735,-187.2343182483652,334.59583368860024
1031668,-292.6616097514863,-187.16314825075676,334.0080352376497
1031669,-293.38708623856206,-187.70664044698526,334.12021404102035
1031670,-293.1683520757388,-188.24307631272066,333.4745462517473
1031671,-293.72421960642214,-187.49524899260933,333.1524755827396
1031672,-293.92060397951224,-186.59946686188164,332.9095087239395
1031673,-294.05315511067863,-187.11291638341908,332.75425686834376
1031674,-293.8867192561452,-186.90008219160288,333.2798937221923
1031675,-294.0280618185307,-186.74224875326607,333.28324058384516
1031676,-293.524074381684,-186.3544241923061,333.74796224506514
1031677,-293.3706498120968,-187.02267639014153,332.6043508402855
1031678,-293.9435201781212,-187.43007526453835,332.8286539534662
1031679,-294.185278257363,-186.87623591158243,332.97283254025984
1031680,-294.0288607484396,-188.12190295222086,332.4763540646248
1031681,-293.63666344998325,-187.71611782278993,332.4193008578393
1031682,-293.7585737483852,-187.618789565712,331.39644111899037
1031683,-294.34972414011594,-187.29407452192712,331.1701350546703
1031684,-294.89602271956903,-187.39741369075003,331.2756302640622
1031685,-294.85810058927154,-187.11067004199109,331.1187785301056
1031686,-295.2335107914107,-187.3998745118509,331.3145431237516
1031687,-294.9087747922896,-188.1511715995504,332.0648210128611
1031688,-293.85291049896966,-188.2014210666204,332.2322845489987
1031689,-293.0452216963406,-188.3677190782563,332.17541791341625
1031690,-292.94893799531627,-188.69281035021623,332.402772590692
1031691,-292.05297655547713,-187.75893973278735,332.90447024500094
1031692,-291.93128532131664,-187.73341050412307,332.1381920171316
1031693,-291.6349432370031,-188.65732811844458,332.19887008640023
1031694,-292.5198661264206,-188.98886346459432,332.0330407455308
1031695,-293.097733150319,-188.35203587831984,330.8560144421687
1031696,-293.0282663539489,-188.9600153947106,330.5314171531493
1031697,-292.5651233638295,-189.83367898992367,330.7143681720744
1031698,-292.50467527398314,-189.34058944493927,330.64421717551875
1031699,-292.70951435738516,-189.5592021119598,331.10013674477744
1031700,-292.86620253123067,-189.78281339209798,331.8622241678466
1031701,-293.41937831106486,-189.80029318352325,331.7294706539365
1031702,-293.84999754946483,-189.70416728513763,330.9943933234347
1031703,-294.34408309432547,-190.1586072289438,330.8753939045652
1031704,-294.0187650351007,-191.10968649083708,330.9130881605012
1031705,-294.21239097068303,-190.3300749763654,330.62120104342296
1031706,-294.2268478112482,-190.33633513290602,331.07126959707995
1031707,-294.6164750345847,-190.60420368206775,330.4456489685497
1031708,-294.9733375683704,-190.55358002599363,329.88013988017997
1031709,-295.5526567008508,-190.10524980182845,329.98393235834953
1031710,-295.8068149379561,-189.88792864044387,329.2663913481163
1031711,-296.0976386254768,-189.7110313627037,329.7482405814727
1031712,-295.31283468030836,-190.03769415049462,329.44719382401405
1031713,-295.4303592908914,-189.64023767516343,328.30404011273214
1031714,-294.5981747273491,-189.6986569034326,329.2330997361015
1031715,-294.61856177917434,-190.272936618627,329.5191503379288
1031716,-295.2504826817191,-190.14684213395427,329.98644957851803
1031717,-294.76035115786163,-189.89892166186837,330.0896974566508
1031718,-294.2827140743292,-189.24320657202443,330.4393894150344
1031719,-294.7077618289795,-188.9125137222942,330.33626900404016
1031720,-294.87163130095416,-189.07258110283874,331.3556606122116
1031721,-294.9962267218539,-189.24995219370334,330.9711982757379
1031722,-295.0736155820786,-189.38430302920736,331.02384950696063
1031723,-295.06479365396916,-190.07365633602066,330.47001618083783
1031724,-295.83647736253977,-189.70481210494933,330.0827350396138
1031725,-296.35688279386625,-190.266152152229,330.1838922645847
1031726,-295.8769363827258,-190.86606611581433,330.75164457121923
1031727,-295.9402312015997,-190.97385973439742,331.7835709160342
1031728,-296.5431458139757,-191.292250899414,331.28293849578984
1031729,-297.19480583304033,-191.01142650499187,331.8330788419152
1031730,-297.988432843566,-191.3515699078956,332.08972430340486
1031731,-297.3088307809578,-191.3149107324291,332.2514709100477
1031732,-297.47093463852303,-191.40537848724938,332.48987476779706
1031733,-298.0041796215308,-191.24235200084394,332.08990298807976
1031734,-297.8648466019684,-191.59051579802934,332.02740246411406
1031735,-297.675315155578,-191.86662938355454,331.36690604838634
1031736,-297.64822552211115,-191.3761805036682,331.8233760940603
1031737,-296.70047617495936,-190.95920391414182,330.7716439448934
1031738,-296.64084947312654,-190.5678697937374,330.91064577020956
1031739,-296.42572481086444,-190.74086197130927,330.47568988612903
1031740,-296.4971320563316,-190.9396571459869,330.3006249114616
1031741,-296.6388433248297,-191.1421529106286,329.8802189424308
1031742,-296.5668571396903,-192.14205839023933,330.0373752886857
1031743,-296.4383576772168,-192.15362604260469,330.11413463735676
1031744,-296.35412745776125,-192.0838997364637,329.27356909473946
1031745,-295.5312263750821,-192.23403282403802,328.7411875443159
1031746,-295.7101879966638,-191.92629140777927,328.1860607382828
1031747,-296.02908965202926,-192.64858162875362,328.6263346646444
1031748,-296.5877368723867,-192.18727673507684,328.8002035952002
1031749,-295.7884783474694,-192.0353825186732,329.36929338820926
1031750,-295.4436156788232,-192.05355660170858,329.03305666928554
1031751,-295.90485711700273,-192.57756122979848,328.9793623625769
1031752,-296.3582526570999,-192.56264947681458,329.7644732949323
1031753,-295.91607432945693,-191.82853038401504,329.5294988470905
1031754,-295.8563128092768,-191.65291387021315,329.04712278175356
1031755,-296.4047170322791,-192.1641558561697,328.65966503200696
1031756,-296.57894210751664,-192.36786591565382,327.67410543127653
1031757,-297.123578541833,-192.0377925311246,327.9925497319759
1031758,-296.81334441704973,-191.2696673477636,327.6287353874929
1031759,-296.84432679151683,-191.24178366966848,327.4202263096426
1031760,-297.14638225001755,-190.913603150821,327.8654867369878
1031761,-297.88303953827153,-190.27323558547087,327.90756840286394
1031762,-297.9303174996601,-189.97425691109797,327.93316145038335
1031763,-299.26165892923495,-190.23258834738576,327.57058359915777
1031764,-299.2724430242361,-190.0894333252243,327.07671750721164
1031765,-299.61049647628204,-189.36855464073977,326.4350739802933
1031766,-300.24714335649594,-189.48984261769104,325.82342915423266
1031767,-299.9344201979423,-189.50884671655982,325.8249365608474
1031768,-299.92967251364547,-188.74234282186612,326.0215804390575
1031769,-299.31846640786443,-188.8579177496799,326.0686151749265
1031770,-299.1328964776006,-189.05738550811333,327.3217078352417
1031771,-299.85863667730916,-188.65110515161513,326.92166895609483
1031772,-300.55268861704366,-188.68419181788187,327.62414620808835
1031773,-299.91024629925766,-189.06909983938027,327.5902421667037
1031774,-299.99905485488006,-189.6031926305038,328.26206102756794
1031775,-299.9452247685153,-190.0303791294485,328.01231968714615
1031776,-299.73014948196567,-190.0641640265283,327.76882822833267
1031777,-299.6830882831493,-189.09957952614968,327.1339501468235
1031778,-299.5813776479926,-189.54610353291366,327.6778081297486
1031779,-298.81668045883276,-189.82847674490972,327.57283926782617
1031780,-298.1307239179066,-189.2826845084417,326.745359691059
1031781,-299.013539105628,-188.51804242335226,326.66071112550225
1031782,-299.10366091258044,-187.56665139609612,325.64926018269296
1031783,-299.41730716745934,-188.2847183132423,326.0644673296934
1031784,-299.3255885271823,-188.33860944240928,325.31736354691174
1031785,-299.35973790701985,-188.42064016340015,325.65177810411507
1031786,-298.9258098309165,-188.87170512579107,325.636910333654
1031787,-298.6023482957242,-188.50418412021844,325.3895494973098
1031788,-297.64464028648246,-188.27323420238963,325.0823110570251
1031789,-298.03141604991436,-188.81187565751537,324.55411678001167
1031790,-298.1871593739301,-188.36238744488656,324.31392507419935
1031791,-298.1145244102775,-189.1080366832231,325.04084385828025
1031792,-297.6653203307964,-189.62645813081053,325.21713264362324
1031793,-297.3599447880367,-189.74512541795482,324.82550419311343
1031794,-297.209113702526,-190.13108254990297,325.3157359633797
1031795,-296.3672757029477,-190.11487094687337,325.52457941569753
1031796,-295.6302287620079,-190.33280263573886,325.7140226418376
1031797,-296.15284774376704,-190.07379303047716,326.4512346182678
1031798,-296.16656700319146,-189.91846530806902,327.4268918032445
1031799,-295.98879980398254,-190.4218286514655,328.03194031648786
1031800,-295.5226672782217,-189.84483598498605,327.3782158032689
1031801,-295.9400678320978,-189.32944562360518,328.084615938148
1031802,-295.37383546768694,-189.29089006409313,327.96896053364026
1031803,-295.64448819452423,-189.12731284357025,328.4884588454788
1031804,-295.12029158990913,-188.23615387086468,328.55384949777874
1031805,-294.78592051400545,-187.89152485780355,328.5520850263818
1031806,-294.3855316991312,-187.69560243850478,327.8998429037648
1031807,-295.4551823275254,-186.52876778134146,327.7043901333508
1031808,-295.23131467107896,-186.61079138428437,326.6641941553743
1031809,-294.5685479266398,-186.10312754933523,325.7800717366351
1031810,-293.874104869871,-186.53280484378993,326.12019656453685
1031811,-293.3153094986264,-186.22808409849074,324.75557707988133
1031812,-293.74014407166464,-186.07750668152573,324.9736851614805
1031813,-293.24378598601254,-186.34957450823774,324.00970701784456
1031814,-294.13106352663834,-186.02344187245762,323.635570604361
1031815,-294.58187953825575,-185.55370290683732,323.2549226030581
1031816,-294.1367059290302,-186.07752740152947,322.35368238092326
1031817,-293.9938735065971,-186.59773978697908,322.536449027672
1031818,-293.8575851086337,-187.41402275819374,322.46012962320134
1031819,-293.92998888992673,-187.46920474866286,323.81215333824207
1031820,-293.4925648076313,-186.8586517489221,323.3493733633427
1031821,-293.41197897990855,-187.12336592687205,321.83604544800227
1031822,-293.0463918131153,-186.9439860419058,320.5708588239616
1031823,-293.11334490174494,-186.7196220252733,320.84367960488817
1031824,-293.20282517738906,-185.99957110761875,321.53133460712615
1031825,-293.6479135075446,-185.66559476637124,321.6500884950825
1031826,-292.8242401896584,-185.95462777924578,321.6340433598316
1031827,-292.5990945175344,-185.58121975304525,322.3956528932137
1031828,-292.5041964232485,-186.32148638428515,322.60655148150767
1031829,-292.1497524312235,-186.47118991167602,323.03482542326185
1031830,-291.8425816265724,-187.77033386312007,324.00653798125734
1031831,-292.3712108730957,-187.31812184251322,324.3217713672283
1031832,-292.42095998106936,-187.5065086731134,324.67263490586083
1031833,-292.781964998694,-188.32272254038054,324.79564813504817
1031834,-292.9345988939265,-188.64523260268547,323.61641804649094
1031835,-293.2500735200785,-188.3182266553224,323.2260492018002
1031836,-292.81595685551906,-188.07238054951085,322.69995299137884
1031837,-292.59276892632124,-187.38238510029558,322.82964039588006
1031838,-292.8036712813422,-187.0708199876301,322.9000513612984
1031839,-292.55009093501917,-186.98426061511034,322.7600753203125
1031840,-292.3331378339897,-186.61695513636388,322.8685704043211
1031841,-292.1547376623738,-186.5870454203357,322.58827262515445
1031842,-291.3496052686848,-185.82857552976867,322.77681679491525
1031843,-292.2769762072691,-184.79290049201254,322.2278073680717
1031844,-292.02123189238074,-184.74198948440298,322.6376233456537
1031845,-291.69695534926933,-184.7443644636077,322.53134592606904
1031846,-291.5573363327589,-185.38205701163943,322.8164802033384
1031847,-291.98223150106276,-185.5204715941124,322.1523573422099
1031848,-292.67206508074935,-185.54020629378493,321.88944534756837
1031849,-292.75121605283346,-185.20535946371615,321.8501116056748
1031850,-292.98301469410774,-184.5385794407627,321.41708355881735
1031851,-293.64205818714856,-184.7509748119197,321.87756798310505
1031852,-293.6123977654207,-184.788681906117,321.34118716177704
1031853,-293.37948363957594,-184.46647734600035,321.2888398969402
1031854,-293.3877584645478,-184.99047644450275,320.5266751260077
1031855,-293.7119400313628,-184.04449049170637,321.18010796035617
1031856,-294.23984774851345,-183.97251613524764,321.0522950352452
1031857,-293.8006873465878,-183.68137833502,320.79428465264044
1031858,-293.41063944422916,-183.25290325006893,320.61421543642695
1031859,-292.77560099794715,-183.52507126972003,319.93477459330796
1031860,-292.7211096075377,-183.64597623088625,320.24817442139505
1031861,-292.5698707594065,-184.49545480980765,320.7436046864792
1031862,-292.0645635972555,-184.68018817581765,319.76763352979367
1031863,-292.63262298092576,-184.55621633960618,320.18073737653475
1031864,-293.6488296786805,-184.04471639268382,320.09505734350574
1031865,-293.40475217594826,-183.76250930087502,320.02624774775035
1031866,-293.0226110871242,-184.16025312130265,320.92707685768664
1031867,-293.26635622951784,-183.71446600834943,321.24848897751167
1031868,-292.94662432556134,-183.11930622807643,321.50265213572214
1031869,-293.33311066070013,-182.9020496940686,321.41347780320575
1031870,-292.9120969643059,-182.9132467073566,321.5809607146666
1031871,-292.1526234602495,-183.50236113200953,320.9291228742825
1031872,-292.5841659400619,-182.25701185160713,321.9512552032047
1031873,-292.2828152210569,-182.50405243708903,321.8623479324548
1031874,-292.78228384661435,-182.5426346125611,322.0268256375108
1031875,-292.2059036229414,-183.09071983946802,323.41330111271566
1031876,-292.7531579157197,-183.61379907685168,323.2122683001444
1031877,-293.0344716485724,-183.88061655256226,323.5306616182327
1031878,-292.7720345873803,-183.94418510560703,323.5949336885351
1031879,-293.4037540373901,-185.0626443709416,323.55480251493657
1031880,-293.8540875597826,-185.23846066633308,322.86982077317805
1031881,-294.6706113820168,-185.6852858043458,323.00685170071944
1031882,-294.3662729092465,-186.17832474658255,322.70342841826294
1031883,-293.7525937131168,-185.5305405806165,322.8330102920394
1031884,-293.60211180353326,-185.32718768086775,322.19561064317975
1031885,-292.9147302474755,-184.28115010922696,321.7616496385215
1031886,-293.36855186336226,-184.46231398465312,321.3237741007237
1031887,-294.1947632994764,-184.0595940714917,321.68096673080925
1031888,-293.93734099224173,-183.48395293846042,321.24410024746857
1031889,-294.5555524061073,-184.08822630893562,321.49121031996833
1031890,-294.1199689521159,-182.98452566913596,322.2426300748241
1031891,-294.2649740156317,-182.87829189412543,322.3566450012055
1031892,-293.61169822583594,-182.7022685379805,322.80290580045
1031893,-293.97094223504564,-181.55510502428956,321.9746875630521
1031894,-294.17332333883735,-181.65884778420306,321.8755132263913
1031895,-294.23272337652855,-181.45980891591384,321.4234323442603
1031896,-294.79926115751334,-181.62333879412412,322.2333608998314
1031897,-294.1205787887985,-182.38228838767748,322.81962050492155
1031898,-294.02878885417596,-182.64981164067484,322.6827341548733
1031899,-294.1009012732402,-182.5933997535316,322.728888256146
1031900,-294.0925865376769,-183.1573309261604,322.05533487684926
1031901,-294.51564443379596,-183.64513863954835,322.0204608202316
1031902,-294.58522806234487,-182.99283735336948,321.6331054300751
1031903,-294.1247716150637,-182.9348741074226,322.39186035673634
1031904,-294.59926692882703,-183.70712828591184,323.1639149035951
1031905,-294.2651992124383,-183.9448926438783,323.9421543866875
1031906,-294.09909469029844,-184.09890625342788,324.3916383695104
1031907,-294.04676618801824,-183.53182993659607,324.0173116567071
1031908,-294.76820455443874,-183.70479643393006,324.439271183683
1031909,-295.2227113338242,-183.49999456388608,324.1565666379631
1031910,-294.60351348192376,-183.44106450065323,324.2587863455079
1031911,-294.98497924724387,-184.0469376563133,323.960157636802
1031912,-294.911146912803,-183.84793604400812,323.10821509227867
1031913,-295.3605459398024,-184.36636797328768,323.31109418899166
1031914,-294.3993256063958,-184.287578304197,322.5753228090706
1031915,-294.40077765247753,-184.5764014389985,322.7164193089714
1031916,-294.2155829851357,-184.2895306680482,323.31070856612075
1031917,-294.4588220254553,-184.2260809425785,322.8363060737607
1031918,-294.10925031955804,-184.64700805236416,323.1019725829904
1031919,-293.3808228654512,-184.82147656564067,323.5249991431467
1031920,-293.6823568353432,-184.989978836832,323.6729076275615
1031921,-294.0819731184419,-185.26236221998425,323.58481790065645
1031922,-293.67920402008684,-185.83856501211318,323.4166303633332
1031923,-293.8218959231701,-185.5140524334584,323.5990681055836
1031924,-293.3844304846536,-185.42600964447513,324.1121678116096
1031925,-293.30289904549056,-184.64327476799195,324.50534630612214
1031926,-294.0921272248748,-185.01634869221866,324.69810736453024
1031927,-294.8351854278413,-185.05086080260523,324.79439911937095
1031928,-294.5952942901064,-184.19864805495084,324.980363564794
1031929,-294.28466611239804,-184.05180314942373,325.5417753119691
1031930,-294.5516975679115,-183.75581653825117,325.46392562450404
1031931,-294.2469272477249,-184.3104673431029,324.89178737598854
1031932,-294.2232812857315,-184.17503992556007,324.72227359491484
1031933,-295.54943772745315,-184.86609960910036,325.02386441602465
1031934,-295.8643709293357,-184.88317645001163,325.42643044512806
1031935,-296.1742673525919,-184.7978177774502,325.7386940699147
1031936,-295.7109997864528,-184.87670803181769,324.7529585571918
1031937,-295.5852505812687,-185.43244674124668,324.10656369480665
1031938,-295.09540071890854,-185.99194269302336,324.21652517760947
1031939,-294.60018108033165,-185.7069254951466,324.269001978594
1031940,-294.05293939218285,-185.20982856992242,324.5617037331598
1031941,-292.98354673638806,-185.37069847029895,324.0336114150627
1031942,-293.40236706042145,-184.90742929533198,323.8176990193192
1031943,-293.06264899284884,-185.3514807686931,323.785751475895
1031944,-293.0428187138923,-185.1149538052584,322.71859893904633
1031945,-292.55199269871906,-184.97773397723023,322.5489233788215
1031946,-292.5563556148192,-185.33037971363416,323.2996180386729
1031947,-292.4696668600957,-184.49268960462769,323.7786181173545
1031948,-292.34458402828113,-183.77736744252638,323.4369175044986
1031949,-293.047512140417,-183.53859005973766,323.3275264834914
1031950,-293.37343714995313,-182.97165053448902,322.8099361038193
1031951,-293.05865563678503,-183.2870001920473,322.4208368320163
1031952,-291.6103756274072,-184.22823340736633,322.7534287622701
1031953,-291.8369892190504,-184.2194576074325,323.09656243110464
1031954,-290.7735637997157,-184.04455763682918,323.74976903260074
1031955,-290.70700979045154,-183.84513843878338,323.9673544957091
1031956,-290.1182918425089,-184.36134142022718,324.65400393315736
1031957,-290.89867441066156,-184.29531127746878,323.77581449639183
1031958,-290.4631206518912,-184.50808497728718,323.0608987326991
1031959,-290.7891377300524,-184.34778884494153,323.3287630252443
1031960,-291.53116236963217,-184.1170204291573,323.465278077699
1031961,-291.7200734371809,-184.3796744601076,322.9510534186826
1031962,-291.7703661766915,-184.33285528856018,322.03775089517984
1031963,-291.19621596663194,-184.8449625499571,321.54483246041553
1031964,-292.07027592336885,-183.3794827261258,320.8657246711816
1031965,-291.2376653373871,-183.81692918375037,320.4636295322854
1031966,-292.43475536771155,-183.9425179478223,319.1234225830957
1031967,-292.2799206207433,-184.20094084102934,320.0718158281085
1031968,-291.9555981403571,-183.8607380299437,320.1578887612808
1031969,-291.35545846446445,-184.07614273617992,321.2733200907227
1031970,-291.14078253281696,-184.48194140816145,321.09411002648983
1031971,-291.2920112504072,-184.65248787635966,321.4256722171406
1031972,-291.15036688949306,-184.4188933297802,320.7758020377834
1031973,-291.2473360897406,-184.21945855625367,320.45784667235915
1031974,-290.4950093354259,-183.99265425257914,320.0731354374726
1031975,-290.9368183409413,-183.84378647516553,320.15228421452827
1031976,-290.69489489216096,-183.38856275007865,319.77079055442033
1031977,-290.94391334507964,-183.61954103928855,320.6134127437988
1031978,-290.31671928389363,-183.71139835906556,321.5562320200444
1031979,-291.01382987839935,-183.25975646554073,321.34481634041515
1031980,-291.19942893597766,-183.03627461250417,321.10704482264356
1031981,-291.64688310566476,-183.12031661138266,321.1761511764842
1031982,-291.83434196227313,-183.99430487940842,320.89153829957763
1031983,-291.4970202194251,-184.11887425590498,320.94083251831563
1031984,-291.2579128864405,-183.93265046525502,320.59682284241825
1031985,-291.3045161164452,-184.6158946893313,320.58817677619
1031986,-291.2388650607579,-184.33270952069492,320.6089658704298
1031987,-291.26178012692486,-185.03177065999984,321.0647694178471
1031988,-291.1765748537262,-184.6071312437723,322.24037373342037
1031989,-291.1676975836782,-184.39570782408217,322.29550570122564
1031990,-289.90676202154475,-183.92082116409705,322.5094034219343
1031991,-290.15260974447625,-183.84925980095633,322.7828470731368
1031992,-291.3941741690561,-183.0132370090879,322.04446292928736
1031993,-290.56039625136157,-182.8462756947565,321.00097585667424
1031994,-290.7023524771186,-182.58162544785222,321.1346494468935
1031995,-290.53457959009376,-182.8562382495613,320.90039462312933
1031996,-289.47810483109185,-183.13001746482817,321.20224902778426
1031997,-289.2583157569809,-184.36091921602497,320.72088251927846
1031998,-288.8942977360191,-183.86863617112994,321.1644762989637
1031999,-288.8214030306744,-184.29086410234848,321.38760233795864
