sample,gyro_x,gyro_y,gyro_z
1057000,-259.96904350482185,-310.4095213163811,288.50095575811497
1057001,-259.8627516688025,-310.2284804809713,287.9950495216976
1057002,-259.4972250908619,-310.35401490499714,288.0090121185809
1057003,-259.32608696293727,-310.80179823637786,287.85169937089665
1057004,-259.2889267457286,-310.170519787463,288.07904579184054
1057005,-259.17685167253165,-310.92205999763337,288.42751049368894
1057006,-259.3421028114955,-310.65178959226233,289.77616053719106
1057007,-259.51747752296137,-310.9960964178043,290.15377204820663
1057008,-259.95752603735025,-311.3538699377361,290.25748561028877
1057009,-259.83311341432017,-311.3863965550062,291.13247976929
1057010,-260.2039291481892,-311.0405050432283,291.17953326123677
1057011,-261.160031040517,-311.10233189953817,291.9405973662139
1057012,-261.4686999371847,-310.9601106531178,291.33784405601773
1057013,-261.78486594146966,-310.2649253473672,291.3562159317261
1057014,-261.77549357374545,-310.8295218448328,290.9255104000942
1057015,-262.03286525672354,-310.7321497711921,290.81910361661517
1057016,-262.2579738415906,-310.1834355593088,290.3441435402811
1057017,-261.91783397091336,-310.5984390017786,290.42869825652065
1057018,-261.9241164874506,-310.09171613088864,290.8821139503537
1057019,-262.0984424327523,-310.2565730298291,290.37184719620143
1057020,-262.3456848250986,-310.73339243402324,291.09726678888745
1057021,-262.615373282924,-310.8834544600365,290.33002452005917
1057022,-262.5859109454975,-311.10727037259113,290.36805184920274
1057023,-261.58874177907063,-310.78824042963333,290.25670408534455
1057024,-261.47382671747613,-311.4447295345371,290.6107370624964
1057025,-261.49449385822555,-311.7565898411788,290.79384649833975
1057026,-261.13590769874264,-311.79918177429494,291.24889294978385
1057027,-260.9515028052412,-312.0728625438928,290.89313877682474
1057028,-260.38831533714796,-312.01692246287234,290.5729904289253
1057029,-260.0054298835708,-312.2618826356548,291.4476180876833
1057030,-259.99820127645506,-312.2568306113812,291.9478678461611
1057031,-260.3952041082617,-312.25723938566307,292.6866074219226
1057032,-260.0480006909963,-312.5282773356152,293.4400025220319
1057033,-260.6019137168005,-312.9198543410697,292.93495139427347
1057034,-259.6963028472906,-314.12090940775266,293.36887705296175
1057035,-259.5223786014814,-314.55723878145017,293.6586273523134
1057036,-259.6591216088067,-314.7027240498538,292.8773792355752
1057037,-259.02413283440137,-314.8218726124832,292.89934375379363
1057038,-258.80826883153907,-314.4163295493543,293.31685996157506
1057039,-258.94745840674324,-314.2317455344446,293.3843274664829
1057040,-259.39601290422956,-314.8219332957185,293.9556252435558
1057041,-259.3943261752527,-314.70928600086086,294.28009934832494
1057042,-260.16028616921636,-315.2853872589955,294.520204927664
1057043,-259.4531903179438,-314.49887135543844,294.62213151322544
1057044,-259.9674933913526,-315.5663436147813,295.125667455488
1057045,-260.3195344028649,-315.7552088419371,295.7637443370296
1057046,-260.05035113806207,-315.75392489585965,296.64097878341505
1057047,-259.8538497550452,-315.4330086028745,297.28743076775646
1057048,-259.5071476537396,-316.14432004989345,297.166504929639
1057049,-259.90345509859566,-316.9477412978247,297.3366993751526
1057050,-259.6752951306915,-315.38611203927235,297.0890044557482
1057051,-259.5847907141536,-316.2194256481872,296.87770691174
1057052,-260.135079051957,-316.6468765444391,297.5173149302393
1057053,-260.56042530000826,-316.0819476641862,297.40215811837635
1057054,-261.3709416061078,-315.86626303522803,297.3550628627229
1057055,-262.55089485968585,-315.6902468233799,297.1561351477623
1057056,-262.07932290083176,-315.6399261665926,296.6363329097731
1057057,-261.5508029120596,-315.586407973359,296.2855901113595
1057058,-261.33341841641186,-315.6892885381235,297.0036201562141
1057059,-260.49400777787866,-316.1516792178297,297.41752336633897
1057060,-260.6393958654798,-316.1060305380746,296.6896817834609
1057061,-260.8190661019076,-315.5140604657785,296.88265317678326
1057062,-260.5873455256445,-315.0808739888516,297.2334006706676
1057063,-261.31369266542674,-315.25923653751823,298.00693223441795
1057064,-260.9125330529359,-316.0075850854625,297.8820425349804
1057065,-261.0456853957941,-316.6823027788581,297.1142151672961
1057066,-260.63471757971354,-316.9718669817758,297.50099781031946
1057067,-260.88278009083086,-317.3030925167613,297.404819022855
1057068,-261.1072353274709,-317.4531259247631,297.59768047275634
1057069,-261.33896626949144,-317.95827231997976,297.8400068238179
1057070,-260.9952218478012,-318.5462350772852,297.1243795521072
1057071,-260.50283367159125,-319.0152241948716,297.4181108044981
1057072,-260.9117490726979,-319.1356004578307,297.3695645704977
1057073,-260.7094608831012,-318.9570721090551,297.27222034980286
1057074,-260.2822781792214,-318.6002650150362,297.25242381584275
1057075,-261.00150648074447,-318.8840465573798,296.9467801834448
1057076,-260.5734834075832,-318.14957895141225,297.66604004418656
1057077,-259.84966087089714,-318.220038917027,297.7344440877846
1057078,-259.94414336335996,-318.5089737897753,298.37583184937677
1057079,-259.8091980512003,-317.8984444695991,298.59551646014063
1057080,-260.73999849598636,-317.62784042216805,297.8753209352198
1057081,-261.46023726953,-317.68317430171226,297.86573705623243
1057082,-261.3431076838821,-316.98825140278944,297.8262207042392
1057083,-262.0134445331714,-316.85091224736686,297.28240911691364
1057084,-262.1803787243971,-316.7024249848273,297.3196539941049
1057085,-262.6279698855409,-317.01199214323697,297.61878685717915
1057086,-262.89560831297433,-316.9313686597901,297.89500515604874
1057087,-262.7871148862778,-317.0879836215772,298.33219003597884
1057088,-263.7000386003654,-316.52842270190797,297.7069601031794
1057089,-263.728586187093,-316.3732103162381,297.40008719531914
1057090,-264.0088066526288,-316.24785179110035,297.19277213046746
1057091,-264.40596651684024,-315.87683877772264,296.64160893624154
1057092,-264.9017388144468,-316.64693108406215,296.05599853819245
1057093,-264.80340198508526,-316.1164406479409,295.64875638428373
1057094,-264.90630265730766,-316.34808374418554,295.49602136114885
1057095,-264.3607073281414,-316.2160716589754,295.5137692028686
1057096,-265.3067720411375,-316.3317993518313,295.1351141800623
1057097,-265.1369089236017,-315.719750020347,294.5616984775276
1057098,-264.86449624758893,-315.41902549710886,294.4769225730524
1057099,-266.08711054040475,-316.3942659783139,294.1109567409359
1057100,-266.8519280647218,-316.8104690789879,293.56915847854924
1057101,-267.17684529136164,-317.1439305622414,293.1801977145422
1057102,-267.1001539364604,-317.1165534384471,293.4017261106899
1057103,-268.0066353985465,-316.4952396138744,292.9269919617581
1057104,-267.806545490666,-316.1888667191127,292.65256687388654
1057105,-267.89922301161096,-315.5439171047791,293.06554064964126
1057106,-267.38699493414936,-316.01847303091915,293.1527359017004
1057107,-267.65151913702545,-315.51495532025234,293.3442544646981
1057108,-266.8717843679877,-315.39720861744536,293.2420497129531
1057109,-267.2504552267274,-314.2039106809031,293.34231224342324
1057110,-267.9936485637926,-313.63054901983753,292.69486029998427
1057111,-268.3087009010813,-313.383544650707,292.84974895082644
1057112,-268.5820972897603,-313.5417662177219,292.5134149759474
1057113,-269.765364415796,-313.4385320183696,292.2286314880626
1057114,-268.929403639548,-313.90912202440194,292.62781841461396
1057115,-268.7206687851109,-313.73395650973987,291.9129841125098
1057116,-269.0974312780084,-313.46056994361925,291.6283669423141
1057117,-269.21972426988697,-313.91172547958064,291.54340237528686
1057118,-269.52188748548105,-313.81103178004696,291.86849278061453
1057119,-270.27190650473955,-313.84008657020456,292.37158363040106
1057120,-270.2588390439617,-313.4372178234794,291.8813819228108
1057121,-270.01649183867033,-312.761209267534,290.9647587572594
1057122,-269.6953509910361,-313.5895908986609,291.04700255991713
1057123,-269.3556464596506,-314.3535169299176,290.9701361181649
1057124,-269.035010794276,-313.90626784060277,290.55806026181693
1057125,-269.2373496142125,-314.28863742027545,290.86909402232436
1057126,-269.66269625574984,-314.46928468692744,290.9068833206374
1057127,-269.74479155270694,-314.30003757845657,290.46235102917353
1057128,-270.0535342358631,-314.66826262555145,290.2396608190809
1057129,-270.70122523068653,-314.30717877325765,290.6757753251597
1057130,-270.68508492205603,-313.5370649503499,290.2390559012201
1057131,-270.9829835887505,-314.0963891198446,290.2378892487002
1057132,-270.9998307978013,-314.354282751747,289.8263670858298
1057133,-271.9305125022441,-314.3715918624111,289.40949257307386
1057134,-272.7353659871306,-315.1402452502613,289.68051113223277
1057135,-271.93833991688416,-315.2566824856045,289.394802114903
1057136,-272.87748945886773,-315.29906302543185,288.664880940387
1057137,-272.175070705879,-315.0701822816736,288.81815377742925
1057138,-272.41400765619545,-315.72491466499963,287.8720141344214
1057139,-271.427556143923,-316.32017960293916,288.1702899661256
1057140,-271.1081467020017,-316.81685523009196,288.337571054065
1057141,-270.5491220135811,-317.2428685153841,288.57044854674706
1057142,-270.1950805432833,-317.1367159373145,288.4164445596894
1057143,-270.0800748545302,-317.44438966329795,287.887789148351
1057144,-270.1292161795893,-317.62372706969626,287.6041963262264
1057145,-270.4923292549343,-317.5879385759062,287.88646633607516
1057146,-270.9548802730937,-316.5949181722737,287.75589254643126
1057147,-271.10869538560024,-316.255482688355,288.0406592756562
1057148,-270.01564596263677,-315.4972474701876,287.33844453056037
1057149,-270.20848206722366,-316.1026038844631,287.3263660258196
1057150,-270.0226615803625,-316.8386477174719,286.92750592234813
1057151,-270.0407345206637,-317.57507514850005,286.7124594723738
1057152,-270.12863208369663,-318.0476125465252,287.2955754462311
1057153,-270.0552631572555,-317.31402760129157,288.100331101525
1057154,-270.03466047304664,-316.82524816294057,287.93793970720674
1057155,-270.60884754119314,-316.6947435891024,288.0852777538291
1057156,-270.826374461218,-316.58233371662146,288.21893456303525
1057157,-270.8172575221484,-317.40399722873775,288.47682644711995
1057158,-271.1709691767401,-316.9561502809569,288.1511358593487
1057159,-271.0194575844874,-317.88025734400617,288.410934319146
1057160,-271.07481564859324,-317.34835533732485,288.67565499778857
1057161,-270.72611713805475,-317.10516896752654,288.1945782175917
1057162,-271.160984913728,-317.5456542296662,288.0907788430251
1057163,-270.33834826670653,-317.72970900319064,288.0966099282894
1057164,-269.7253906378993,-317.14382011477545,287.3961586084013
1057165,-268.6012092348585,-316.78035147983695,287.11056413480867
1057166,-267.83323918577616,-317.02928777467923,287.610866603933
1057167,-267.39417205683134,-316.71611593653637,287.81514741964514
1057168,-267.0785093532206,-316.4876946064651,288.33701488994046
1057169,-267.32652133352406,-315.6106341078129,287.4649480549033
1057170,-267.53532422797326,-315.1501552524722,287.39830800416274
1057171,-267.26401115069143,-314.308497748648,287.4191628518793
1057172,-268.3615523365149,-314.2916777819999,288.11092681933076
1057173,-267.78192259772004,-313.82135595501717,288.083931889225
1057174,-268.0705960434808,-314.056361760083,287.55749738232646
1057175,-267.872141704632,-314.1744362095129,287.06797700702623
1057176,-267.9088024226553,-314.10265071629465,287.8299345724238
1057177,-268.48184233483187,-313.9441083557795,287.83270904529536
1057178,-268.93132625137554,-314.3241249883858,288.17497738078066
1057179,-269.1347729495971,-314.80232702930584,289.0389392411697
1057180,-268.9340108906038,-316.21439550594204,288.59651779070373
1057181,-268.77845246724615,-316.17401342708104,289.4368782962619
1057182,-269.3861291837585,-315.45914026604186,288.75911570726515
1057183,-269.0906616496693,-314.9278351355787,288.73935256287825
1057184,-269.17360249427156,-313.9093949222434,288.33880614402517
1057185,-268.90109859913304,-314.06471381155393,287.60205301508364
1057186,-268.77885954129295,-314.50184733883987,288.0781768648667
1057187,-269.0738196741505,-314.39656309547183,287.9749711039305
1057188,-269.7058626436493,-313.91980835764207,287.8839335785691
1057189,-269.8353970255042,-313.9507818463463,287.78306812712924
1057190,-271.0430072241643,-314.4181645434294,287.8936244156731
1057191,-270.5751742511944,-314.39671719035687,287.21550435746093
1057192,-270.91588004992064,-314.53511916567567,287.6432693232416
1057193,-271.0196486600626,-314.6100211113557,287.1581049730484
1057194,-271.6137927755032,-315.1313508138356,287.8447690970526
1057195,-272.5157001248205,-315.77697710756536,288.11416769862234
1057196,-272.697436676856,-315.9783360397059,287.9954354978131
1057197,-271.45467358021915,-315.5620036648341,287.73495257733225
1057198,-271.3845467412942,-315.3162890703471,288.8920597787963
1057199,-271.9437233703708,-315.98470021654975,288.8172032847197
1057200,-271.98886887947896,-316.1826783980693,289.1587615314304
1057201,-271.80876577181016,-316.35754293178013,288.96984482856266
1057202,-271.7024923607594,-316.8251986633228,289.4837418479167
1057203,-271.9744335080568,-316.23433228632535,288.9913408847131
1057204,-271.69511580692574,-315.8972602997885,289.11005783786123
1057205,-272.17578181794556,-315.5656673336772,288.5588773986436
1057206,-271.5532435783638,-315.6221902493647,288.45142488681546
1057207,-271.8939228128744,-315.93065948835186,289.66290770856926
1057208,-271.8090493321744,-315.41219156123964,289.5865769658775
1057209,-272.32395547033724,-315.7446457564865,290.0969522512146
1057210,-272.88934234779947,-315.7448576854281,290.0206062544473
1057211,-272.56163160524596,-315.7942079832246,289.6759175054689
1057212,-272.3546147329434,-315.5035004794679,289.68796695677815
1057213,-272.08049637745347,-315.1430729208095,290.2949601330234
1057214,-271.82916948387685,-315.68074147432753,290.1124240583797
1057215,-272.36431494186183,-315.92331946607976,289.758816752948
1057216,-271.4927984731682,-315.3518642938464,290.3959430443813
1057217,-271.16557932647885,-315.4186631074287,290.3257166765197
1057218,-271.24790624202956,-315.5715533043135,290.0704392183997
1057219,-271.550382573331,-316.1688942282619,290.2326395865302
1057220,-271.51277051976234,-315.8192939778709,291.0175096839425
1057221,-271.274326647291,-315.50579428155396,290.56848544922116
1057222,-271.6901018474167,-315.656805901894,289.6996988974396
1057223,-271.35002669276065,-316.1955684011188,289.25079048239326
1057224,-270.9961482782939,-316.17211497089994,289.1223284432919
1057225,-271.2951041157072,-316.2483392695714,289.12694550967444
1057226,-271.46396670547296,-315.57691606282225,289.29753766301957
1057227,-271.37270976905285,-314.76119381127995,289.2492411444045
1057228,-271.0040078437447,-314.70195105175753,289.13329106366086
1057229,-270.72408458852476,-314.06681156706725,289.75137569291303
1057230,-270.7853613907924,-313.66918134399555,289.5729548313534
1057231,-270.8772440461096,-313.5536425213461,290.1240201126705
1057232,-270.8575453553536,-314.2288736648729,289.6362526061216
1057233,-270.2718417303301,-314.0034816708997,290.7344550991839
1057234,-270.68679361887007,-313.7928248634881,290.5246710964992
1057235,-270.50266013022474,-314.0227477602449,290.08967745894876
1057236,-270.8896265964472,-313.15284305704114,289.8279976932252
1057237,-270.3276057452555,-312.70925227233477,290.0003437273776
1057238,-270.14054078983554,-312.38155080698425,289.67494364971486
1057239,-270.69436261151,-313.1307942549657,289.9543173041661
1057240,-269.7824697177613,-312.2838915551513,290.4550680825754
1057241,-270.7864558416605,-311.26157686289497,291.7222725566992
1057242,-270.46849952880143,-311.4733426486483,291.8582607741754
1057243,-269.76678070068573,-311.91048355142584,291.3717351228006
1057244,-269.4281091045403,-311.51649464474315,290.94978315905473
1057245,-268.9494603233975,-311.26093686594004,290.74774195673484
1057246,-268.9320896655127,-311.179329105749,292.0638179011442
1057247,-269.255452842382,-310.100806094293,292.8537880568239
1057248,-269.2931058452995,-310.5250010711504,293.2395746079488
1057249,-268.83616492084826,-311.07127204072077,293.6031883277963
1057250,-269.29634606683203,-310.5831075434351,292.6430314407585
1057251,-269.3772141242646,-310.69479830389776,292.3945868794559
1057252,-270.0451851618475,-310.38082004553587,292.364106425604
1057253,-268.8350972211359,-309.43005811151744,292.7333728825725
1057254,-268.71771923276316,-309.8370308882629,292.52847304355873
1057255,-268.2346859517003,-309.9396534787251,292.0855687593376
1057256,-268.47472123385194,-310.3652773564372,290.80272429689853
1057257,-269.26495988015415,-310.10099586097056,290.7884483413224
1057258,-269.1843154722526,-309.1065045167528,290.5351743702576
1057259,-268.61409027650643,-309.11458844672364,289.6494454046374
1057260,-268.2640939099117,-309.3870546889109,289.84406549919805
1057261,-267.86560565225943,-309.4036543987687,290.40025415308355
1057262,-268.7063532551559,-308.7639567669549,290.6102453146178
1057263,-268.1251603721246,-309.1129407232905,290.1228966137712
1057264,-268.98253877543607,-309.4383273667771,290.092252570334
1057265,-269.3606584785393,-308.97509884235984,290.9206812593573
1057266,-269.1799012286933,-309.2954752327378,291.09278833165195
1057267,-269.5650112605432,-308.37994473440546,291.1050774323619
1057268,-269.42076348868477,-308.6234731156348,290.9348020160469
1057269,-269.13840263251285,-309.1521245516966,291.6927450571388
1057270,-269.2028993260707,-310.08383870350826,290.82153132555766
1057271,-268.1351262150726,-310.3763421994223,290.55628973042656
1057272,-268.5668772504745,-310.00840725525904,290.8104305195078
1057273,-268.7348456126464,-309.62617335613834,290.9294367192349
1057274,-269.53130577602536,-309.2781053952316,291.06010812217687
1057275,-269.3922815301372,-308.7718294183245,291.26829856444596
1057276,-268.90711322180545,-309.02376650270867,291.73511619756493
1057277,-268.655631455445,-309.2536663008946,291.8928707058755
1057278,-267.8117754583121,-308.4889655019068,292.99521231431527
1057279,-267.40830294476353,-308.4863774667408,292.92990050309487
1057280,-267.28054100938397,-308.10229278468205,292.3477289965694
1057281,-267.83769607971544,-307.869702676702,291.59391382256536
1057282,-267.4927365154315,-307.1718868059299,291.84898058018666
1057283,-267.78652802707535,-305.8345830783156,291.4748763448002
1057284,-268.0722623433717,-305.22620413828946,291.3613034188123
1057285,-269.0010671356543,-304.73192396344854,291.4310050024912
1057286,-268.80466359771793,-304.98158982566304,292.26134904741457
1057287,-268.95083435842724,-304.9326139515023,291.7026502526178
1057288,-268.47542462802545,-305.5442202440849,291.079880414046
1057289,-268.9112556352769,-305.31844772118245,290.5755658763827
1057290,-269.73567010183876,-305.47406240818134,291.1749669396769
1057291,-270.3798486444667,-305.6762608706073,291.0803893512534
1057292,-270.70412001487534,-305.6612783052479,291.0928271303305
1057293,-270.5393102825371,-305.0908433607961,290.4911138277082
1057294,-270.8966705180085,-304.2213989435011,291.09108360751014
1057295,-271.2326481398279,-303.68386001739594,291.1707449057821
1057296,-271.2914762679166,-303.2713171837199,291.7268899661386
1057297,-272.21486983972835,-303.1679143916533,292.5116130139652
1057298,-272.7012074394266,-302.5654750114568,291.9491794586748
1057299,-273.2688440085328,-303.1950212783798,292.79981561721127
1057300,-273.07293484367864,-303.2576365495577,293.03932173591534
1057301,-272.71033322895113,-303.42732632299186,293.0346729062201
1057302,-272.2983155622873,-304.0517514797195,293.13845128729355
1057303,-271.43883045051956,-303.621216462601,293.8695799698859
1057304,-271.33397420581235,-303.6192792960731,293.08406532554415
1057305,-271.4053899272774,-303.23520263988473,292.205291069453
1057306,-271.03587728103133,-302.67696058549507,292.2700063236024
1057307,-271.25408013955024,-302.387680112329,292.1549943561612
1057308,-271.4347987007384,-302.39395480646004,291.7214860802875
1057309,-271.10887671787225,-302.21795854019894,291.2874339479051
1057310,-271.03585836033386,-302.97771230053985,290.7714692550761
1057311,-270.8006644254629,-302.86844048385717,290.35514235097423
1057312,-271.6883940083021,-303.24534187302436,289.5234224083386
1057313,-271.68791111654735,-302.2770090505451,289.2821142062891
1057314,-270.9281117534099,-302.0040054987688,289.3966024711218
1057315,-270.8639160983154,-301.6541001488996,288.99621590345515
1057316,-271.00777896231716,-301.10419839443347,288.7957739099705
1057317,-271.7572058487195,-300.38309176217984,289.6423545213624
1057318,-271.09820655171313,-300.4669671125236,289.5706566972464
1057319,-271.3211100289478,-300.01324974877934,289.8816466334225
1057320,-270.4727928461639,-300.23340890289154,290.3498231527758
1057321,-270.6627321751532,-299.27444787202535,290.3098261006766
1057322,-269.6521909227557,-298.73706192598104,290.598003582114
1057323,-269.5441959156911,-297.93964792495257,290.6139324405645
1057324,-269.7377581839108,-297.6903106374328,290.7267623856962
1057325,-269.31030900490373,-297.5075823201186,291.6918980653359
1057326,-269.35403977225945,-297.3948571729184,292.1560240963951
1057327,-269.08991159377814,-298.0348441661681,292.7686780448514
1057328,-269.61986198203704,-298.5835319506819,293.435637793631
1057329,-269.54334782882046,-298.4447010790383,293.9181250560172
1057330,-269.92791878638536,-298.8460160993619,294.1268687118226
1057331,-270.10355492382746,-298.287328981442,295.0361376612249
1057332,-269.848512025825,-298.93714492950016,294.5983941594737
1057333,-270.6724493234284,-299.1200767019757,295.2155532254612
1057334,-270.07232752289343,-298.4514764860455,295.4178749546584
1057335,-269.91777470173264,-298.2156620968503,295.2918482211073
1057336,-269.59517306670267,-298.57298913311365,296.0140214514192
1057337,-269.94238060207186,-298.66307884872623,295.75560601519413
1057338,-270.55622992629446,-298.89874459473344,295.9995089162967
1057339,-270.3277827515424,-299.4640038002735,296.1505356419908
1057340,-270.67886714416204,-299.19095830760403,295.7888035457901
1057341,-270.5611220604979,-298.8233666593919,295.060457106897
1057342,-270.41119641681223,-299.2140468996185,294.9447366769518
1057343,-270.2786998940921,-299.1390386308962,294.99541784871457
1057344,-270.56275106174127,-299.3583008844534,294.7650208401219
1057345,-271.3730876042643,-299.56857252875295,293.69848742641074
1057346,-270.77290176788523,-299.90999008796814,294.2481286346745
1057347,-271.81602812223326,-300.6659218834782,294.0315126318222
1057348,-271.73997999229897,-300.2691228339801,293.7957484375652
1057349,-272.35905255811474,-299.43942226279376,293.9631807593475
1057350,-272.8484873029765,-298.82870294091424,293.97519232042794
1057351,-272.6851207714196,-298.92780858723756,294.4291481714975
1057352,-271.9547990666696,-298.41062423056485,295.2564734193694
1057353,-271.5358130927175,-298.66254139046436,294.5758072035488
1057354,-270.8247092233294,-298.5441543658038,294.32934019207164
1057355,-271.1303259323805,-299.0374750837148,294.93446293824337
1057356,-271.7058613348284,-299.00160513048513,294.31709564582064
1057357,-271.172738187416,-299.19266334452254,294.7316879011068
1057358,-270.5004598695394,-299.34758601913336,295.61807899010887
1057359,-270.07978775435504,-299.61302778465875,296.3698728936387
1057360,-269.63993799580385,-299.73874919926357,295.9863966029525
1057361,-269.22836394599904,-300.21902629914996,296.0887424116726
1057362,-269.21840773383,-299.5833347900414,295.7908874349145
1057363,-269.4422466240649,-299.380154875876,296.32011868466446
1057364,-269.6343733905873,-299.1298204437728,296.5352699690352
1057365,-269.4453692533051,-299.30555840989194,296.5257252410702
1057366,-268.83353823751276,-299.07342745897705,296.20344018129384
1057367,-268.74053311746377,-299.3360683668265,296.3442205510528
1057368,-268.89760938740335,-298.47369737889545,297.11056461290843
1057369,-269.3072329871359,-298.04764598866836,296.7297192435785
1057370,-269.4026630209856,-298.1330048015162,296.6465324338763
1057371,-270.03488889255345,-298.15937607324054,297.9027371553033
1057372,-269.63665292751676,-298.12910072233484,297.4862850137886
1057373,-268.49611419794513,-298.93567783537964,297.38134700462814
1057374,-267.74011601829073,-298.8875978649534,297.18682785512596
1057375,-267.6920471121121,-298.01219856954134,297.01127002466933
1057376,-267.59855100573066,-297.58419894644754,297.54001215035424
1057377,-267.06191336717154,-297.95707576383455,296.304581354371
1057378,-266.98115694504565,-297.8415816147864,296.14681307181814
1057379,-266.589909240959,-298.13144037465725,295.5941109495873
1057380,-266.97502340196024,-298.1272528045345,295.62861464718117
1057381,-267.0577749876873,-298.3648561071254,296.7655698358635
1057382,-267.3451904328516,-298.2098283907523,296.37434925028873
1057383,-267.26032028337096,-297.54137979705166,296.02967721521054
1057384,-266.822857958424,-296.4351590312018,296.7838668076398
1057385,-266.7730278218387,-295.97364685531556,296.00933159405974
1057386,-267.13381795056705,-295.401547643146,296.7678456797124
1057387,-266.7822070303428,-295.43828056852925,297.06524866192836
1057388,-266.46750864987587,-296.30746071463557,296.51001440098423
1057389,-265.887797186083,-296.2466310246203,296.978170008672
1057390,-267.0729266791611,-296.3681680078402,297.1757769686346
1057391,-267.3769534952599,-295.37466871662565,296.5799081456084
1057392,-267.56829896397056,-294.1395621381741,296.3582401313338
1057393,-267.2320243198945,-294.50553765684845,296.037570397656
1057394,-267.6356932818015,-294.4955983578919,295.8283360812877
1057395,-267.7456626851632,-294.05545091104455,295.71224038316586
1057396,-267.7921778755356,-294.4068845446336,296.0529521715532
1057397,-267.9065705024708,-294.26099744365837,295.7963571196206
1057398,-268.1310434994657,-294.0620776808988,295.83065189959984
1057399,-267.5150377649363,-295.0510821324409,295.75726871252294
1057400,-267.7285570715471,-296.31445923135874,295.4797531759973
1057401,-268.16093476416194,-297.6447026631645,295.89098543577416
1057402,-267.4335495704187,-297.78404995389565,295.8322487913819
1057403,-266.70484104828995,-297.9952195326372,296.0289365930511
1057404,-267.61874049140977,-298.6504516724325,296.4300170000432
1057405,-266.64264929931056,-298.0859272138476,296.5943216998501
1057406,-266.94077634296764,-298.9751386169147,296.43776353621695
1057407,-266.35650449514696,-299.200270197247,296.578200424243
1057408,-266.3292359532733,-299.4513265738359,296.1954302759818
1057409,-266.30714847488883,-298.6685398922131,295.70452849149507
1057410,-265.820405956952,-298.63319743259615,295.59956361411844
1057411,-265.9503703682911,-298.7737146678693,296.74367744339713
1057412,-265.3503986619201,-299.9943981097369,297.35104033429843
1057413,-264.7785261133327,-299.6327860393156,296.18671294401065
1057414,-265.53046355891445,-299.7896327638764,295.87343490063074
1057415,-265.32208409081767,-298.9138928989841,296.61266508737157
1057416,-264.729682588886,-299.10907841339355,296.9402156483905
1057417,-265.6761116228403,-298.2811862976139,297.27302205469294
1057418,-266.06939083968746,-298.38546143260066,296.8095654590178
1057419,-266.08200326633613,-299.11432671746513,296.966946902293
1057420,-266.00793945830327,-299.34641319146436,297.27711377594386
1057421,-267.1558351885929,-299.12028679414516,296.56733079794395
1057422,-266.38228167241346,-299.3534545168077,295.26354702339785
1057423,-266.16411977029486,-300.70269122926,295.3586177368046
1057424,-266.1987316978562,-301.89327353385613,294.82328989857865
1057425,-266.0468800383075,-302.6958579833707,294.863757080744
1057426,-265.83520053437564,-302.21288716254674,294.9414338616688
1057427,-266.0165729158555,-302.4223056737586,294.99992292568675
1057428,-266.2942964016478,-303.5751399736721,295.3116634818924
1057429,-266.1261390761281,-303.4245202696083,295.8676197300454
1057430,-266.1997010192989,-303.6368627302581,296.401787766092
1057431,-265.56189941318087,-304.2326075247662,296.46528025136695
1057432,-265.0115393864946,-304.6798655680365,296.0310207684232
1057433,-265.136362788178,-305.20650232200785,295.5302031977727
1057434,-265.56466326369804,-304.8011568043812,295.5955070898452
1057435,-265.2622986475205,-304.9606257027567,295.665670675174
1057436,-266.13969768173763,-305.0842428407781,295.87879685803625
1057437,-266.63300514355115,-305.7160508549493,296.25320448587365
1057438,-266.28789867294256,-306.75519188943065,296.41976001935546
1057439,-265.97656844513017,-306.4914461515084,296.72672233879734
1057440,-265.58620444132964,-306.412742371201,296.4381687841439
1057441,-266.10968783145796,-306.12472782082494,296.4557203748809
1057442,-266.34029507401027,-306.03808445771335,297.0027163699385
1057443,-266.54684695559365,-305.9492546126235,296.91176700753687
1057444,-266.2874000684136,-305.8043070233306,296.8622065283192
1057445,-266.14007613349895,-306.2480963132459,297.04911765752917
1057446,-266.7156090634494,-306.31138220126803,296.8003683786811
1057447,-266.7574187932781,-306.5982377994039,296.7694767106557
1057448,-266.667159116078,-305.7307157014099,296.6073867572684
1057449,-267.44708012289885,-306.0053245833922,297.1298204751596
1057450,-268.2150171525666,-305.5611041117797,296.81254525554334
1057451,-268.2268579673224,-305.81727768133356,297.0441248684908
1057452,-267.9336112705887,-306.08808775643456,296.4877018799032
1057453,-268.7463582213699,-306.1037690626286,296.93683211137926
1057454,-268.06106847698015,-306.8093949065397,296.6445346432261
1057455,-267.38534383750385,-306.8577072752309,296.40444654657637
1057456,-267.6232693455448,-306.4556233826152,296.1092698394425
1057457,-267.70644931136445,-306.3193729782882,296.10068214750373
1057458,-267.17327386841407,-306.418062326955,295.6461392719339
1057459,-268.19753094708926,-306.083446576912,294.93713068651505
1057460,-267.5687591420531,-306.47837929392796,295.1950795314408
1057461,-268.04423861206527,-306.34473073903257,295.5731005391951
1057462,-269.04569253897466,-305.59184258125964,294.7734194329976
1057463,-269.5681623140397,-305.44494489783676,295.0360738712419
1057464,-269.98402548468704,-306.1498920870835,295.1670326244798
1057465,-270.1673960096703,-305.2646715062579,295.7947147759706
1057466,-269.8173069813698,-305.8900964667644,295.63903802105887
1057467,-270.4717887073485,-305.31482128568103,295.4799821880517
1057468,-270.4792422677689,-305.78431787245404,296.0128529354611
1057469,-270.9716575462949,-305.314562903557,295.1169479756375
1057470,-270.7072424417019,-305.27817777590377,295.8599133114729
1057471,-270.5456260076491,-305.1817496851217,295.6678986617871
1057472,-270.52361013100807,-305.4463538609342,295.7934256792302
1057473,-270.0901778783873,-305.63396881464627,295.8926597515849
1057474,-270.67416462990883,-305.2981039147041,295.6211394535129
1057475,-270.7208612031742,-305.9261934382416,295.61925754039805
1057476,-270.1131173865999,-306.4953850542794,295.3451228158673
1057477,-269.846892807857,-305.5101455269161,296.24911932926693
1057478,-269.25231160430764,-305.90068128099404,295.55263305441645
1057479,-268.86978570341546,-306.29653678505264,295.4354655662061
1057480,-268.57809522516646,-305.5058629222923,294.70020795751105
1057481,-268.1651833293082,-305.2567442632536,294.69756924114375
1057482,-268.2226656720279,-305.0297320265194,294.97432715728576
1057483,-268.8998325368108,-304.61819128136017,293.7308871937091
1057484,-267.9655072664802,-305.36666852576855,293.79757608792175
1057485,-268.0420091374563,-305.95995344341173,294.9710570100924
1057486,-268.404980592438,-306.2821125964459,295.1829823075292
1057487,-268.8786703119958,-306.28841083130493,294.3909485987574
1057488,-269.4759234990293,-306.1177812248515,294.7824968884341
1057489,-269.6158562261757,-305.97680940252104,294.87504546106373
1057490,-269.2031369704225,-306.0787596438426,295.6144337379517
1057491,-269.7369627093304,-305.92406822910556,295.9633634303916
1057492,-269.56443248096883,-305.76492383444776,296.28693698289015
1057493,-270.3454377820638,-305.42169456566404,295.3585823718231
1057494,-269.66000258974327,-304.37238494179206,294.7631219024728
1057495,-269.5638621688465,-305.38968877072034,294.5507036506749
1057496,-270.85143037391236,-305.2687022025796,294.5051110413271
1057497,-271.2621180887531,-305.75417460763646,294.06689877794156
1057498,-271.9074131705331,-306.3293820615188,294.19208418010095
1057499,-271.7472625031316,-306.18971983786815,293.6070118505268
